sep=;
ACCELEROMETER X (m/s²);ACCELEROMETER Y (m/s²);ACCELEROMETER Z (m/s²);GRAVITY X (m/s²);GRAVITY Y (m/s²);GRAVITY Z (m/s²);LINEAR ACCELERATION X (m/s²);LINEAR ACCELERATION Y (m/s²);LINEAR ACCELERATION Z (m/s²);GYROSCOPE X (°/s);GYROSCOPE Y (°/s);GYROSCOPE Z (°/s);LIGHT (lux);MAGNETIC FIELD X (μT);MAGNETIC FIELD Y (μT);MAGNETIC FIELD Z (μT);ORIENTATION Z (azimuth °);ORIENTATION X (pitch °);ORIENTATION Y (roll °);PROXIMITY (m);LOCATION Latitude : ;LOCATION Longitude : ;LOCATION Altitude ( m);LOCATION Altitude-google ( m);LOCATION Speed ( Kmh);LOCATION Accuracy ( m);LOCATION ORIENTATION (°);Satellites in range;Time since start in ms ;YYYY-MO-DD HH-MI-SS_SSS
-4.4831;5.409;7.0391;5.3391;4.4245;6.9384;-1.5362;0.0839;-1.715;-9.51;-52.3;2.76;3899.0;36.66;-29.51;-15.06;229.46;-27.32;-40.39;5.0;;;;NaN;;;;0 / 0;32;2021-12-18 13:52:39:110
-3.834;5.388;7.2161;5.4013;3.8403;7.2305;-0.2806;0.1134;-0.3362;-2.87;-13.36;-2.35;5595.0;34.56;-27.6;-20.16;235.42;-24.33;-36.88;5.0;;;;NaN;;;;0 / 0;532;2021-12-18 13:52:39:610
-3.535;3.267;5.225;4.5059;4.8794;7.2209;-0.4913;0.868;2.7418;32.47;-11.41;-28.2;5187.0;33.66;-27.54;-23.29;237.1;-22.69;-36.61;5.0;;;;NaN;;;;0 / 0;1032;2021-12-18 13:52:40:110
-2.139;2.5421;8.8871;2.6193;2.2122;9.1889;-1.5725;-0.5727;-4.3726;48.88;-8.75;-78.84;3282.0;27.06;-15.41;-29.4;253.58;-13.04;-15.91;5.0;;;;NaN;;;;0 / 0;1532;2021-12-18 13:52:40:610
-0.564;4.77;8.8751;4.6352;0.5411;8.6239;-0.7311;-0.8678;-0.0833;26.01;-25.8;6.4;3097.0;19.01;-23.04;-29.64;233.43;-1.96;-25.68;5.0;;;;NaN;;;;0 / 0;2033;2021-12-18 13:52:41:111
-1.79;6.7931;9.9521;5.4684;1.4365;8.0158;0.5728;-4.0335;2.1991;54.6;-0.61;-22.13;3450.0;14.46;-29.76;-22.91;222.4;-7.86;-51.89;5.0;;;;NaN;;;;0 / 0;2533;2021-12-18 13:52:41:611
-0.3919;3.71;1.448;9.0932;0.9385;3.5434;0.4546;2.123;7.7757;25.79;-140.75;-59.61;4417.0;-2.16;-28.74;-27.66;222.46;-5.49;-68.71;5.0;;;;NaN;;;;0 / 0;3033;2021-12-18 13:52:42:111
9.945;-8.6359;-3.588;-5.43;-7.671;-2.8108;0.6945;5.7042;3.2556;18.21;-103.57;115.49;5495.0;-44.21;15.3;5.29;340.47;43.29;107.33;5.0;;;;NaN;;;;0 / 0;3533;2021-12-18 13:52:42:611
3.03;-6.374;-2.3021;-7.8721;-4.3383;-3.9265;2.7806;2.0048;1.179;167.1;-197.89;-59.04;3511.0;-42.6;8.21;17.4;301.2;26.25;116.51;5.0;;;;NaN;;;;0 / 0;4033;2021-12-18 13:52:43:111
8.435;-8.0351;-6.8171;-5.7652;-6.1675;-4.9943;-4.0267;-0.5239;4.8777;-71.97;17.97;-43.53;6778.0;-43.56;12.11;12.06;305.83;37.26;127.57;5.0;;;;NaN;;;;0 / 0;4533;2021-12-18 13:52:43:611
7.6661;-14.991;-1.2469;-8.7915;-4.3239;-0.4357;-1.176;6.2078;-2.1491;168.88;-149.49;-23.83;3348.0;-37.2;25.44;13.2;340.92;36.0;106.84;5.0;;;;NaN;;;;0 / 0;5033;2021-12-18 13:52:44:111
7.875;-12.169;-5.558;-7.7333;-4.9847;-3.3902;-5.2816;3.4205;3.6438;18.59;-56.62;-23.55;5305.0;-41.29;1.26;23.04;266.84;9.9;98.03;5.0;;;;NaN;;;;0 / 0;5533;2021-12-18 13:52:44:611
6.704;-6.3;-3.24;-6.3351;-6.7469;-3.2513;-3.1849;-2.5433;0.4768;-55.62;23.6;-65.13;7822.0;-39.71;23.34;13.74;320.13;43.46;117.17;5.0;;;;NaN;;;;0 / 0;6032;2021-12-18 13:52:45:110
6.704;-6.3;-3.24;-6.3351;-6.7469;-3.2513;-3.1849;-2.5433;0.4768;-55.62;23.6;-65.13;7822.0;-39.71;23.34;13.74;320.13;43.46;117.17;5.0;;;;NaN;;;;0 / 0;6033;2021-12-18 13:52:45:111
6.704;-6.3;-3.24;-6.3351;-6.7469;-3.2513;-3.1849;-2.5433;0.4768;-55.62;23.6;-65.13;7822.0;-39.71;23.34;13.74;320.13;43.46;117.17;5.0;;;;NaN;;;;0 / 0;6034;2021-12-18 13:52:45:112
6.704;-6.3;-3.24;-6.3351;-6.7469;-3.2513;-3.1849;-2.5433;0.4768;-55.62;23.6;-65.13;7822.0;-39.71;23.34;13.74;320.13;43.46;117.17;5.0;;;;NaN;;;;0 / 0;6065;2021-12-18 13:52:45:143
8.913;-9.3161;-4.5161;-6.3446;-6.1627;-4.2377;-1.6009;0.2199;1.2887;-40.12;45.02;0.43;8088.0;-41.34;25.99;9.66;320.83;38.93;123.74;5.0;;;;NaN;;;;0 / 0;6565;2021-12-18 13:52:45:643
2.513;-7.532;-2.4101;-9.0597;-2.8491;-2.4517;3.4252;0.24;-0.3784;79.59;-143.87;20.59;3451.0;-44.76;6.6;18.71;295.95;15.23;109.94;5.0;;;;NaN;;;;0 / 0;7065;2021-12-18 13:52:46:143
5.562;-7.4029;-1.424;-7.197;-6.0908;-2.7054;-1.2747;-1.0032;-0.1903;0.5;30.9;-38.83;7164.0;-41.59;25.44;8.21;322.05;37.4;114.28;5.0;;;;NaN;;;;0 / 0;7564;2021-12-18 13:52:46:642
4.076;-9.837;-1.946;-9.0788;-3.0789;-2.0638;1.3741;2.1401;-0.7696;96.02;-91.36;-0.74;3229.0;-46.01;19.14;10.39;327.6;18.3;102.81;5.0;;;;NaN;;;;0 / 0;8065;2021-12-18 13:52:47:143
6.321;-7.161;-4.3991;-6.4548;-6.2584;-3.9169;-2.6562;-1.241;1.7568;-6.59;-5.71;-57.43;7047.0;-44.29;22.74;12.71;317.78;39.66;121.25;5.0;;;;NaN;;;;0 / 0;8565;2021-12-18 13:52:47:643
4.7411;-8.475;-2.901;-8.2025;-4.5921;-2.7964;0.8262;0.9992;0.1175;9.08;24.64;-4.0;2976.0;-44.16;26.89;4.14;340.55;30.72;107.83;5.0;;;;NaN;;;;0 / 0;9064;2021-12-18 13:52:48:142
5.742;-8.0299;-3.173;-7.7859;-5.0901;-3.1029;-0.8734;-0.2649;0.6482;-6.7;1.25;-13.13;3745.0;-45.24;25.09;5.76;332.77;28.97;107.81;5.0;;;;NaN;;;;0 / 0;9565;2021-12-18 13:52:48:643
4.514;-8.181;-2.91;-8.2504;-4.4867;-2.8204;0.6395;0.2474;0.2293;4.91;-2.32;9.16;2818.0;-44.16;26.81;4.14;337.01;27.23;108.87;5.0;;;;NaN;;;;0 / 0;10069;2021-12-18 13:52:49:147
5.0141;-8.0921;-2.8309;-7.9918;-4.9512;-2.7868;-0.0535;0.0567;0.1661;3.32;-0.92;-5.87;2953.0;-44.76;27.11;4.61;337.01;31.13;108.25;5.0;;;;NaN;;;;0 / 0;10565;2021-12-18 13:52:49:643
4.9331;-8.068;-2.726;-8.0685;-4.9368;-2.5905;-0.0759;0.0024;0.0566;3.35;-1.89;-0.43;2914.0;-44.89;27.11;4.56;336.08;31.28;109.36;5.0;;;;NaN;;;;0 / 0;11065;2021-12-18 13:52:50:143
4.6841;-9.103;-0.38;-8.5808;-4.7118;-0.5842;0.1739;1.0805;-2.5311;-55.89;26.75;19.22;2657.0;-43.69;27.54;8.64;341.35;33.46;101.55;5.0;;;;NaN;;;;0 / 0;11565;2021-12-18 13:52:50:643
4.5191;-8.27;-3.063;-8.1738;-4.1563;-3.4764;0.2458;0.1049;1.6023;36.7;-37.24;-1.11;2657.0;-43.56;27.0;8.51;344.75;27.33;93.88;5.0;;;;NaN;;;;0 / 0;12065;2021-12-18 13:52:51:143
4.5191;-8.27;-3.063;-8.1738;-4.1563;-3.4764;0.2458;0.1049;1.6023;36.7;-37.24;-1.11;2657.0;-43.56;27.0;8.51;344.75;27.33;93.88;5.0;;;;NaN;;;;0 / 0;12066;2021-12-18 13:52:51:144
4.5191;-8.27;-3.063;-8.1738;-4.1563;-3.4764;0.2458;0.1049;1.6023;36.7;-37.24;-1.11;2657.0;-43.56;27.0;8.51;344.75;27.33;93.88;5.0;;;;NaN;;;;0 / 0;12067;2021-12-18 13:52:51:145
4.5191;-8.27;-3.063;-8.1738;-4.1563;-3.4764;0.2458;0.1049;1.6023;36.7;-37.24;-1.11;2657.0;-43.56;27.0;8.51;344.75;27.33;93.88;5.0;;;;NaN;;;;0 / 0;12068;2021-12-18 13:52:51:146
4.5191;-8.27;-3.063;-8.1738;-4.1563;-3.4764;0.2458;0.1049;1.6023;36.7;-37.24;-1.11;2657.0;-43.56;27.0;8.51;344.75;27.33;93.88;5.0;;;;NaN;;;;0 / 0;12069;2021-12-18 13:52:51:147
4.5191;-8.27;-3.063;-8.1738;-4.1563;-3.4764;0.2458;0.1049;1.6023;36.7;-37.24;-1.11;2657.0;-43.56;27.0;8.51;344.75;27.33;93.88;5.0;;;;NaN;;;;0 / 0;12069;2021-12-18 13:52:51:147
4.5191;-8.27;-3.063;-8.1738;-4.1563;-3.4764;0.2458;0.1049;1.6023;36.7;-37.24;-1.11;2657.0;-43.56;27.0;8.51;344.75;27.33;93.88;5.0;;;;NaN;;;;0 / 0;12070;2021-12-18 13:52:51:148
4.5191;-8.27;-3.063;-8.1738;-4.1563;-3.4764;0.2458;0.1049;1.6023;36.7;-37.24;-1.11;2657.0;-43.56;27.0;8.51;344.75;27.33;93.88;5.0;;;;NaN;;;;0 / 0;12070;2021-12-18 13:52:51:148
4.164;-8.325;-3.614;-8.1786;-4.0845;-3.5482;0.453;0.0249;1.581;7.38;-17.77;4.14;2657.0;-43.56;27.0;8.51;344.75;27.33;93.88;5.0;;;;NaN;;;;0 / 0;12072;2021-12-18 13:52:51:150
4.164;-8.325;-3.614;-8.1786;-4.0845;-3.5482;0.453;0.0249;1.581;7.38;-17.77;4.14;2657.0;-43.56;27.0;8.51;344.75;27.33;93.88;5.0;;;;NaN;;;;0 / 0;12073;2021-12-18 13:52:51:151
4.164;-8.325;-3.614;-8.1786;-4.0845;-3.5482;0.453;0.0249;1.581;7.38;-17.77;4.14;2657.0;-43.56;27.0;8.51;344.75;27.33;93.88;5.0;;;;NaN;;;;0 / 0;12074;2021-12-18 13:52:51:152
4.164;-8.325;-3.614;-8.1786;-4.0845;-3.5482;0.453;0.0249;1.581;7.38;-17.77;4.14;2657.0;-43.56;27.0;8.51;344.75;27.33;93.88;5.0;;;;NaN;;;;0 / 0;12074;2021-12-18 13:52:51:152
4.164;-8.325;-3.614;-8.1786;-4.0845;-3.5482;0.453;0.0249;1.581;7.38;-17.77;4.14;2657.0;-43.56;27.0;8.51;344.75;27.33;93.88;5.0;;;;NaN;;;;0 / 0;12075;2021-12-18 13:52:51:153
4.164;-8.325;-3.614;-8.1786;-4.0845;-3.5482;0.453;0.0249;1.581;7.38;-17.77;4.14;2657.0;-43.56;27.0;8.51;344.75;24.62;113.45;5.0;;;;NaN;;;;0 / 0;12076;2021-12-18 13:52:51:154
4.164;-8.325;-3.614;-8.1786;-4.0845;-3.5482;0.453;0.0249;1.581;7.38;-17.77;4.14;2860.0;-43.31;27.71;6.71;329.98;24.62;113.45;5.0;;;;NaN;;;;0 / 0;12080;2021-12-18 13:52:51:158
4.164;-8.325;-3.614;-8.1786;-4.0845;-3.5482;0.453;0.0249;1.581;7.38;-17.77;4.14;2860.0;-43.31;27.71;6.71;329.98;24.62;113.45;5.0;;;;NaN;;;;0 / 0;12081;2021-12-18 13:52:51:159
4.164;-8.325;-3.614;-8.1786;-4.0845;-3.5482;0.453;0.0249;1.581;7.38;-17.77;4.14;2860.0;-43.31;27.71;6.71;329.98;24.62;113.45;5.0;;;;NaN;;;;0 / 0;12083;2021-12-18 13:52:51:161
4.164;-8.325;-3.614;-8.1786;-4.0845;-3.5482;0.453;0.0249;1.581;7.38;-17.77;4.14;2860.0;-43.31;27.71;6.71;329.98;24.62;113.45;5.0;;;;NaN;;;;0 / 0;12084;2021-12-18 13:52:51:162
-3.15;-1.06;15.7091;-0.6416;1.9249;9.596;3.9608;-8.8436;-18.2362;426.48;-80.66;150.14;2860.0;-5.76;10.31;-33.79;329.98;24.62;113.45;5.0;;;;NaN;;;;0 / 0;12206;2021-12-18 13:52:51:284
-2.6591;-3.197;10.73;-2.7916;1.6472;9.256;4.4972;-1.2796;1.0562;-44.06;63.7;-146.86;8931.0;13.31;-38.76;-25.09;185.32;-21.0;22.47;5.0;;;;NaN;;;;0 / 0;12706;2021-12-18 13:52:51:784
-4.6219;-0.476;12.8921;-0.3304;3.304;9.2273;2.5011;-1.7333;-3.0743;3.54;1.65;-1.61;8931.0;16.01;-2.21;-38.94;308.1;-19.69;2.05;0.0;;;;NaN;;;;0 / 0;13204;2021-12-18 13:52:52:282
-4.6219;-0.476;12.8921;-0.3304;3.304;9.2273;2.5011;-1.7333;-3.0743;3.54;1.65;-1.61;8931.0;16.01;-2.21;-38.94;308.1;-19.69;2.05;0.0;;;;NaN;;;;0 / 0;13205;2021-12-18 13:52:52:283
-4.6219;-0.476;12.8921;-0.3304;3.304;9.2273;2.5011;-1.7333;-3.0743;3.54;1.65;-1.61;8931.0;16.01;-2.21;-38.94;308.1;-19.69;2.05;0.0;;;;NaN;;;;0 / 0;13205;2021-12-18 13:52:52:283
-2.585;-3.846;6.515;-4.8076;2.9066;8.0397;-0.2637;-0.154;1.9367;57.47;12.4;-174.99;23533.0;15.24;-22.61;-38.59;143.82;-17.24;30.88;0.0;;;;NaN;;;;0 / 0;13684;2021-12-18 13:52:52:762
-3.37;-1.752;8.547;-1.5371;2.6767;9.3087;1.7943;-1.8108;1.5328;10.76;-22.47;-10.58;5999.0;18.71;-8.76;-41.64;212.51;2.32;3.25;0.0;;;;NaN;;;;0 / 0;14184;2021-12-18 13:52:53:262
-1.8949;-2.194;6.2921;-3.1077;2.6863;8.9064;-1.0766;-0.3476;2.4039;-46.95;4.59;45.01;22089.0;21.84;-10.8;-39.41;357.95;-23.75;22.58;0.0;;;;NaN;;;;0 / 0;14684;2021-12-18 13:52:53:762
-1.9601;-1.747;9.062;-2.5953;0.8332;9.4188;0.3722;-0.4426;-5.2043;10.71;-8.76;13.4;7168.0;20.64;-17.7;-38.04;215.28;-4.87;15.41;0.0;;;;NaN;;;;0 / 0;15446;2021-12-18 13:52:54:524
-0.485;-2.678;9.9881;-1.834;-0.8571;9.596;-2.7722;-0.4132;-1.2596;-41.13;36.32;60.57;24204.0;26.64;-4.86;-36.19;246.69;5.01;10.82;0.0;;;;NaN;;;;0 / 0;15683;2021-12-18 13:52:54:761
-8.473;-2.934;11.6471;-1.9537;5.6551;7.7716;3.813;-0.0335;0.554;0.95;0.22;-0.13;4449.0;24.19;-3.06;-37.31;324.68;-29.03;16.28;0.0;;;;NaN;;;;0 / 0;16182;2021-12-18 13:52:55:260
-8.473;-2.934;11.6471;-1.9537;5.6551;7.7716;3.813;-0.0335;0.554;0.95;0.22;-0.13;4449.0;24.19;-3.06;-37.31;324.68;-29.03;16.28;0.0;;;;NaN;;;;0 / 0;16183;2021-12-18 13:52:55:261
-8.473;-2.934;11.6471;-1.9537;5.6551;7.7716;3.813;-0.0335;0.554;0.95;0.22;-0.13;4449.0;24.19;-3.06;-37.31;324.68;-29.03;16.28;0.0;;;;NaN;;;;0 / 0;16184;2021-12-18 13:52:55:262
-8.473;-2.934;11.6471;-1.9537;5.6551;7.7716;3.813;-0.0335;0.554;0.95;0.22;-0.13;4449.0;24.19;-3.06;-37.31;324.68;-29.03;16.28;0.0;;;;NaN;;;;0 / 0;16185;2021-12-18 13:52:55:263
-8.473;-2.934;11.6471;-1.9537;5.6551;7.7716;3.813;-0.0335;0.554;0.95;0.22;-0.13;4449.0;24.19;-3.06;-37.31;324.68;-29.03;16.28;0.0;;;;NaN;;;;0 / 0;16185;2021-12-18 13:52:55:263
-8.473;-2.934;11.6471;-1.9537;5.6551;7.7716;3.813;-0.0335;0.554;0.95;0.22;-0.13;4449.0;24.19;-3.06;-37.31;324.68;-29.03;16.28;0.0;;;;NaN;;;;0 / 0;16185;2021-12-18 13:52:55:263
-8.473;-2.934;11.6471;-1.9537;5.6551;7.7716;3.813;-0.0335;0.554;0.95;0.22;-0.13;4449.0;24.19;-3.06;-37.31;324.68;-29.03;16.28;0.0;;;;NaN;;;;0 / 0;16186;2021-12-18 13:52:55:264
-10.397;-2.3381;16.841;-1.1444;5.114;8.2887;7.6714;-0.1445;-3.4179;-56.97;54.04;165.46;4449.0;20.16;12.54;-40.69;345.5;-35.21;14.11;0.0;;;;NaN;;;;0 / 0;16252;2021-12-18 13:52:55:330
-3.6709;-5.625;6.276;-5.9999;3.9169;6.699;0.529;1.3126;1.9725;-12.05;8.6;-73.54;7030.0;21.54;-31.91;-30.19;166.01;-23.54;41.85;0.0;;;;NaN;;;;0 / 0;16752;2021-12-18 13:52:55:830
-7.1059;-1.424;10.869;0.0239;6.2824;7.5322;4.2479;-2.1164;-3.9272;103.8;55.27;-72.06;4218.0;29.29;7.8;-34.91;318.19;-30.53;8.12;0.0;;;;NaN;;;;0 / 0;17253;2021-12-18 13:52:56:331
-2.376;-4.473;4.535;-6.4596;3.4237;6.5362;-1.6643;0.3774;4.1765;-30.75;-68.74;32.69;16473.0;31.26;-22.99;-26.64;217.71;-18.15;38.93;0.0;;;;NaN;;;;0 / 0;17752;2021-12-18 13:52:56:830
-4.461;-1.299;8.3291;-1.3312;4.5825;8.5665;0.869;-1.95;0.21;22.14;-9.48;52.31;4520.0;27.71;2.64;-35.51;321.04;-26.07;15.74;0.0;;;;NaN;;;;0 / 0;18255;2021-12-18 13:52:57:333
-7.2311;-7.934;11.9891;-2.5283;5.4684;7.7428;3.9296;4.7031;-4.2054;86.61;77.06;-172.07;7291.0;23.34;14.21;-35.64;349.79;-30.81;24.41;0.0;;;;NaN;;;;0 / 0;18854;2021-12-18 13:52:57:932
-7.2311;-7.934;11.9891;-2.5283;5.4684;7.7428;3.9296;4.7031;-4.2054;86.61;77.06;-172.07;7291.0;23.34;14.21;-35.64;349.79;-30.81;24.41;0.0;;;;NaN;;;;0 / 0;18855;2021-12-18 13:52:57:933
-7.2311;-7.934;11.9891;-2.5283;5.4684;7.7428;3.9296;4.7031;-4.2054;86.61;77.06;-172.07;7291.0;23.34;14.21;-35.64;349.79;-30.81;24.41;0.0;;;;NaN;;;;0 / 0;18855;2021-12-18 13:52:57:933
-7.2311;-7.934;11.9891;-2.5283;5.4684;7.7428;3.9296;4.7031;-4.2054;86.61;77.06;-172.07;7291.0;23.34;14.21;-35.64;349.79;-30.81;24.41;0.0;;;;NaN;;;;0 / 0;18856;2021-12-18 13:52:57:934
-7.2311;-7.934;11.9891;-2.5283;5.4684;7.7428;3.9296;4.7031;-4.2054;86.61;77.06;-172.07;7291.0;23.34;14.21;-35.64;349.79;-30.81;24.41;0.0;;;;NaN;;;;0 / 0;18857;2021-12-18 13:52:57:935
-7.2311;-7.934;11.9891;-2.5283;5.4684;7.7428;3.9296;4.7031;-4.2054;139.56;104.15;-259.41;7474.0;24.71;11.21;-35.81;338.84;-33.88;18.08;0.0;;;;NaN;;;;0 / 0;18858;2021-12-18 13:52:57:936
-7.2311;-7.934;11.9891;-2.2984;2.1261;9.2943;2.6461;4.6563;-3.9508;139.56;104.15;-259.41;7474.0;24.71;11.21;-35.81;338.84;-33.88;18.08;0.0;;;;NaN;;;;0 / 0;18859;2021-12-18 13:52:57:937
-7.2311;-7.934;11.9891;-2.2984;2.1261;9.2943;2.6461;4.6563;-3.9508;139.56;104.15;-259.41;7474.0;24.71;11.21;-35.81;338.84;-33.88;18.08;0.0;;;;NaN;;;;0 / 0;18862;2021-12-18 13:52:57:940
-7.2311;-7.934;11.9891;-2.2984;2.1261;9.2943;2.6461;4.6563;-3.9508;139.56;104.15;-259.41;7474.0;24.71;11.21;-35.81;338.84;-33.88;18.08;0.0;;;;NaN;;;;0 / 0;18863;2021-12-18 13:52:57:941
-4.756;-3.702;11.9321;-2.5474;2.4134;9.1602;2.5372;-0.1006;-3.1632;-37.11;-29.65;54.96;4295.0;24.71;-26.81;-31.14;210.15;-13.7;21.15;0.0;;;;NaN;;;;0 / 0;19292;2021-12-18 13:52:58:370
-2.273;-0.8779;21.044;-0.4022;1.0487;9.7444;1.5058;-1.9964;-9.5929;79.16;7.46;-175.19;5039.0;19.99;3.71;-42.06;295.11;-6.14;2.36;5.0;;;;NaN;;;;0 / 0;19792;2021-12-18 13:52:58:870
-2.0509;-2.1731;10.871;-1.8866;1.7765;9.4571;1.0091;1.6774;1.6006;-136.51;-35.52;202.87;18006.0;19.99;-0.49;-40.91;19.47;-23.11;33.9;5.0;;;;NaN;;;;0 / 0;20312;2021-12-18 13:52:59:390
-3.039;-0.5021;11.4551;-0.407;2.5091;9.4715;-0.5125;-2.172;0.9825;4.18;0.01;-3.72;18006.0;27.84;-5.81;-35.59;267.07;-7.04;4.71;5.0;;;;NaN;;;;0 / 0;20452;2021-12-18 13:52:59:530
-0.234;2.7401;9.114;2.8204;0.2394;9.3901;0.5805;-2.2583;0.6474;53.27;5.85;-14.8;3821.0;17.64;-16.99;-40.91;240.89;-3.39;-12.83;5.0;;;;NaN;;;;0 / 0;20953;2021-12-18 13:53:00:031
-1.23;4.787;8.526;4.7645;1.221;8.4851;0.7257;-1.1377;0.5784;14.65;47.26;24.12;4159.0;21.71;-27.49;-33.19;235.21;-7.15;-29.31;5.0;;;;NaN;;;;0 / 0;21453;2021-12-18 13:53:00:531
0.191;5.5841;8.66;4.4005;0.1341;8.7628;-0.9364;-0.1913;0.0349;29.52;-47.88;-22.69;4882.0;15.79;-33.66;-31.14;220.18;1.43;-29.24;5.0;;;;NaN;;;;0 / 0;21952;2021-12-18 13:53:01:030
-0.026;4.65;7.3481;6.019;0.565;7.7189;0.1077;0.0168;1.2861;32.05;-2.09;-40.38;5247.0;16.39;-33.3;-31.56;220.72;-3.22;-29.35;5.0;;;;NaN;;;;0 / 0;22452;2021-12-18 13:53:01:530
-1.943;2.8481;10.881;2.4469;1.6616;9.347;0.7613;0.9121;0.065;-31.15;-0.8;0.02;5221.0;23.94;-27.36;-30.54;234.02;-9.76;-14.67;5.0;;;;NaN;;;;0 / 0;22953;2021-12-18 13:53:02:031
-0.713;3.1811;6.233;4.4341;0.9912;8.6957;-0.8797;0.4058;2.7664;6.82;-9.62;-14.66;5385.0;23.94;-22.91;-33.06;240.68;-4.93;-36.51;5.0;;;;NaN;;;;0 / 0;23453;2021-12-18 13:53:02:531
0.708;0.536;8.7671;0.565;-0.5124;9.7779;-0.3212;3.1787;-2.2042;-78.87;3.78;60.26;4795.0;32.64;-18.49;-35.46;243.63;0.53;-6.76;5.0;;;;NaN;;;;0 / 0;23952;2021-12-18 13:53:03:030
-1.0841;2.453;6.702;3.3327;1.4605;9.1075;1.3518;-0.7062;2.5213;32.28;17.59;-18.71;4013.0;27.96;-18.06;-34.39;240.01;3.84;-14.95;5.0;;;;NaN;;;;0 / 0;24452;2021-12-18 13:53:03:530
-0.6821;4.1291;4.49;6.6032;1.0918;7.1682;-0.7546;-0.7038;4.5959;14.27;5.14;25.78;4359.0;23.34;-29.51;-30.96;232.32;8.22;-33.98;5.0;;;;NaN;;;;0 / 0;24953;2021-12-18 13:53:04:031
-1.144;3.6521;4.8131;5.8275;1.8052;7.6758;0.8605;1.4117;1.3475;22.53;-47.08;-37.1;4565.0;21.41;-28.86;-32.81;226.65;9.02;-30.15;5.0;;;;NaN;;;;0 / 0;25453;2021-12-18 13:53:04:531
-0.77;3.3221;6.57;5.4684;1.1396;8.0589;0.013;0.478;3.3214;-36.11;32.4;55.46;4357.0;20.46;-31.39;-31.44;225.09;-2.83;-21.57;5.0;;;;NaN;;;;0 / 0;25952;2021-12-18 13:53:05:030
-1.773;-0.8299;9.7871;-1.0774;-0.3879;9.7396;0.346;3.3188;-1.5273;-123.88;18.57;64.14;4584.0;24.66;-17.1;-37.09;240.8;-9.53;10.44;5.0;;;;NaN;;;;0 / 0;26453;2021-12-18 13:53:05:531
-0.8539;2.0321;8.157;2.5857;1.1827;9.3853;-0.8551;-0.6416;0.9069;-22.07;-10.81;55.01;3684.0;20.29;-27.71;-34.01;237.8;-15.52;-8.77;5.0;;;;NaN;;;;0 / 0;26952;2021-12-18 13:53:06:030
2.984;3.4391;8.748;3.7062;-3.2274;8.4898;-0.123;0.5733;-2.2455;-21.33;4.95;55.97;4348.0;14.46;-33.0;-32.64;216.06;5.29;-23.34;5.0;;;;NaN;;;;0 / 0;27452;2021-12-18 13:53:06:530
-0.483;5.445;8.471;5.296;0.4645;8.2408;-0.8548;0.1978;-7.4189;22.93;-2.6;-20.64;4709.0;14.29;-35.21;-29.81;215.45;2.27;-25.34;5.0;;;;NaN;;;;0 / 0;27953;2021-12-18 13:53:07:031
1.5821;4.5521;13.9661;3.2034;-1.3312;9.1746;-1.4864;-1.2659;-0.4919;9.28;-3.4;8.19;5196.0;12.24;-37.91;-28.09;216.08;0.48;-42.53;5.0;;;;NaN;;;;0 / 0;28453;2021-12-18 13:53:07:531
0.306;5.213;12.813;4.367;0.7949;8.7436;0.6991;0.6404;-4.4381;-53.15;42.41;25.19;4882.0;17.21;-24.41;-37.44;235.45;-4.65;-26.54;5.0;;;;NaN;;;;0 / 0;28953;2021-12-18 13:53:08:031
-1.22;4.421;10.5341;3.7685;1.0343;8.9926;-0.1398;-1.5724;-1.9243;22.9;-22.35;-43.93;4661.0;17.51;-29.29;-35.21;229.03;-6.06;-22.74;5.0;;;;NaN;;;;0 / 0;29452;2021-12-18 13:53:08:530
-2.589;5.933;9.012;4.1372;2.0351;8.6526;1.1248;-1.011;-0.6434;12.88;45.36;6.16;5207.0;23.76;-34.31;-28.56;227.64;-8.31;-36.47;5.0;;;;NaN;;;;0 / 0;29953;2021-12-18 13:53:09:031
-2.154;4.737;8.006;5.138;1.9154;8.1307;-0.6529;-0.8946;-0.1116;-1.09;2.82;2.98;5012.0;25.91;-35.46;-24.24;227.29;-19.51;-26.82;5.0;;;;NaN;;;;0 / 0;30453;2021-12-18 13:53:09:531
-3.25;4.6931;6.458;5.3391;3.6919;7.355;0.7935;0.466;2.4669;27.38;23.4;-12.61;5571.0;25.74;-36.11;-21.19;225.58;-22.11;-35.98;5.0;;;;NaN;;;;0 / 0;30952;2021-12-18 13:53:10:030
-1.18;4.461;6.824;5.1475;0.5602;8.327;-1.7817;0.6226;1.5623;8.38;-39.04;-10.79;5685.0;20.34;-37.99;-24.79;220.49;-11.83;-29.07;5.0;;;;NaN;;;;0 / 0;31453;2021-12-18 13:53:10:531
-0.2681;4.83;5.0861;6.3494;1.3647;7.3502;0.2547;0.2281;3.3619;18.82;-56.55;-30.8;5193.0;18.84;-38.1;-26.21;219.99;-3.39;-41.75;5.0;;;;NaN;;;;0 / 0;31952;2021-12-18 13:53:11:030
0.2411;4.071;6.632;5.0326;0.9816;8.3606;-1.1614;0.2987;2.27;-16.02;0.99;-1.46;5113.0;20.04;-34.91;-27.96;223.34;-5.74;-31.05;5.0;;;;NaN;;;;0 / 0;32453;2021-12-18 13:53:11:531
-0.909;3.5591;6.774;4.9321;1.0965;8.4084;0.3065;0.6365;2.0767;-30.33;-23.11;10.33;4530.0;18.36;-34.56;-29.29;222.46;-6.42;-30.39;5.0;;;;NaN;;;;0 / 0;32952;2021-12-18 13:53:12:030
-0.876;2.774;10.376;2.0638;1.4222;9.481;1.8424;1.6162;-1.5596;-37.12;15.28;26.95;4433.0;22.56;-32.89;-28.56;228.8;-14.19;-17.9;5.0;;;;NaN;;;;0 / 0;33452;2021-12-18 13:53:12:530
3.0851;4.571;11.9651;1.7526;-0.249;9.6486;0.2936;2.1092;-9.4637;-29.76;-20.3;-10.96;4444.0;21.96;-27.79;-33.11;229.47;-5.01;-15.38;5.0;;;;NaN;;;;0 / 0;33953;2021-12-18 13:53:13:031
-1.199;3.47;12.281;2.648;0.9194;9.3948;-1.4151;-1.1698;-2.1048;-6.47;1.07;-0.14;4112.0;22.69;-27.96;-32.51;230.66;-5.38;-15.74;5.0;;;;NaN;;;;0 / 0;34453;2021-12-18 13:53:13:531
-1.6219;2.403;9.591;2.3463;1.585;9.3901;0.2593;0.7009;-3.6934;17.76;-10.86;-4.37;4973.0;21.96;-28.09;-32.46;231.11;-9.3;-14.03;5.0;;;;NaN;;;;0 / 0;34952;2021-12-18 13:53:14:030
10.733;9.3011;8.135;5.1571;-6.0908;5.6982;-0.7676;-0.0243;-0.7755;-33.72;94.36;82.25;5132.0;22.91;-32.21;-28.26;227.42;-4.23;-17.08;0.0;;;;NaN;;;;0 / 0;35453;2021-12-18 13:53:14:531
-3.2621;3.032;9.699;2.4852;3.0167;8.9926;2.1728;1.6659;-0.9324;-23.59;34.25;-5.0;3656.0;29.76;-28.39;-24.96;236.38;-13.07;-27.1;5.0;;;;NaN;;;;0 / 0;35952;2021-12-18 13:53:15:030
-4.045;2.886;8.2121;2.9449;4.1276;8.3941;0.5465;0.7676;-0.0257;57.88;-26.97;-146.96;37278.0;30.41;-0.79;-34.56;282.18;-33.56;-17.53;5.0;;;;NaN;;;;0 / 0;36452;2021-12-18 13:53:15:530
-1.038;1.3421;11.309;1.1444;0.8859;9.6965;-1.9898;1.3428;-2.2106;24.38;-55.07;-33.84;4700.0;17.21;4.74;-43.09;298.46;-10.72;-8.06;5.0;;;;NaN;;;;0 / 0;36953;2021-12-18 13:53:16:031
-3.3431;1.6871;9.32;1.6376;3.2609;9.1028;-0.2142;-0.2274;0.1332;-3.46;3.77;39.41;34987.0;25.74;5.81;-38.16;293.13;-17.04;-13.98;5.0;;;;NaN;;;;0 / 0;37453;2021-12-18 13:53:16:531
-4.0759;1.8551;9.239;1.7717;3.893;8.825;0.4932;0.1146;-0.2565;12.55;9.03;-29.58;28615.002;25.14;7.31;-37.86;301.05;-23.39;-11.35;5.0;;;;NaN;;;;0 / 0;37952;2021-12-18 13:53:17:030
-3.894;1.8881;8.81;2.1021;3.7062;8.8346;-0.127;-0.084;-0.1865;-2.22;1.19;-1.1;31366.0;25.26;7.61;-37.74;300.09;-22.2;-13.38;5.0;;;;NaN;;;;0 / 0;38453;2021-12-18 13:53:17:531
-3.963;1.938;8.7671;1.9632;3.9409;8.7628;0.1008;-0.0395;0.0606;0.5;-0.72;-2.51;29575.002;25.14;7.8;-38.04;301.58;-23.12;-12.04;5.0;;;;NaN;;;;0 / 0;38953;2021-12-18 13:53:18:031
-4.0421;1.754;8.837;1.7334;4.0079;8.7771;0.1167;0.122;-0.0303;-3.34;0.12;4.73;28808.998;25.44;8.34;-37.39;303.95;-24.28;-9.31;5.0;;;;NaN;;;;0 / 0;39452;2021-12-18 13:53:18:530
-4.026;2.199;8.763;2.3415;3.9648;8.6574;0.1917;-0.1092;-0.0254;-1.47;6.59;-0.31;28530.0;27.66;6.6;-36.36;300.07;-26.1;-10.27;5.0;;;;NaN;;;;0 / 0;39953;2021-12-18 13:53:19:031
-1.79;3.035;9.9761;2.806;1.6568;9.2512;-2.215;0.0997;-1.2173;-25.88;-17.04;62.66;29075.002;25.31;2.64;-39.49;282.84;-9.72;-16.87;5.0;;;;NaN;;;;0 / 0;40453;2021-12-18 13:53:19:531
0.177;6.06;8.775;5.5641;-0.1484;8.0732;-0.6528;-0.4813;-0.7124;29.76;-25.28;15.43;9980.0;16.09;-11.46;-43.61;252.98;2.8;-38.29;5.0;;;;NaN;;;;0 / 0;40953;2021-12-18 13:53:20:031
-0.957;6.084;3.705;8.2983;1.3024;5.0613;1.1236;0.6751;2.8654;49.4;-39.54;-41.05;14811.0;13.31;-19.5;-41.21;245.09;-1.62;-50.55;5.0;;;;NaN;;;;0 / 0;41452;2021-12-18 13:53:20:530
-1.182;3.734;5.2391;5.0757;1.3312;8.2887;-0.9795;1.3136;-1.0096;-42.89;29.77;62.82;15326.0;20.04;-10.8;-41.89;259.18;-7.8;-31.48;5.0;;;;NaN;;;;0 / 0;41952;2021-12-18 13:53:21:030
-0.6461;4.3031;5.6561;5.454;0.3543;8.1451;-1.3027;1.0129;-0.0772;-22.87;28.3;86.31;9816.0;17.29;-16.8;-41.04;244.65;3.67;-41.05;5.0;;;;NaN;;;;0 / 0;42453;2021-12-18 13:53:21:531
-0.624;4.5071;7.602;4.3383;1.2689;8.7053;1.6285;1.5384;-2.9077;-60.12;66.74;69.56;15503.0;17.64;-15.71;-41.76;253.98;-11.41;-42.29;5.0;;;;NaN;;;;0 / 0;42952;2021-12-18 13:53:22:030
0.902;5.093;7.8341;5.296;-1.4174;8.1307;-0.6086;0.2416;-0.6914;-9.61;12.16;16.28;12096.0;18.49;-15.9;-41.16;242.65;8.31;-33.08;5.0;;;;NaN;;;;0 / 0;43453;2021-12-18 13:53:22:531
-2.601;5.0381;7.2791;5.3486;2.7533;7.7428;2.962;3.3552;-4.6511;-28.1;12.51;-4.49;12497.0;20.04;-12.06;-41.51;261.4;-11.69;-13.81;5.0;;;;NaN;;;;0 / 0;43953;2021-12-18 13:53:23:031
1.376;5.277;10.8401;2.3511;-0.5363;9.505;-2.5581;0.607;-3.068;-61.84;22.68;54.76;12118.0;14.94;-8.29;-45.11;260.23;-9.38;-39.52;5.0;;;;NaN;;;;0 / 0;44452;2021-12-18 13:53:23:530
1.5791;-0.7511;16.4921;-0.2107;0.6129;9.7875;0.0859;4.218;-10.4507;-37.17;10.92;-64.18;9129.0;13.56;3.54;-44.94;296.4;-9.1;-9.65;5.0;;;;NaN;;;;0 / 0;44953;2021-12-18 13:53:24:031
0.6071;8.5571;4.799;6.9671;0.0862;6.9001;1.3337;-2.2075;-1.2611;108.66;-4.51;-54.49;10126.0;18.41;-11.21;-41.46;255.44;-0.5;-45.28;5.0;;;;NaN;;;;0 / 0;45453;2021-12-18 13:53:24:531
-1.271;5.996;9.9761;4.6352;1.7573;8.4611;2.6898;-3.4303;-1.8164;33.57;-24.11;-65.27;18002.0;13.91;-19.86;-40.86;245.02;-2.24;-57.06;5.0;;;;NaN;;;;0 / 0;45952;2021-12-18 13:53:25:030
-1.2731;9.182;10.4291;6.9001;-2.7342;6.4117;0.5204;-2.8876;-2.2893;39.64;-47.63;-76.66;14383.0;15.06;-18.49;-41.51;245.52;-1.99;-38.03;5.0;;;;NaN;;;;0 / 0;46453;2021-12-18 13:53:25:531
-0.806;12.6911;7.331;7.0677;-0.0718;6.7995;0.0096;-2.5394;-2.0492;57.43;-48.44;-42.08;19279.0;12.84;-22.61;-40.44;240.17;7.55;-62.07;5.0;;;;NaN;;;;0 / 0;46952;2021-12-18 13:53:26:030
-0.373;4.287;2.3621;8.5665;0.7374;4.7214;0.0393;3.326;3.8292;43.57;-32.03;-5.73;16909.0;15.24;-20.1;-40.26;245.26;-4.31;-61.14;5.0;;;;NaN;;;;0 / 0;47453;2021-12-18 13:53:26:531
-1.06;3.2741;11.6801;2.8778;0.0527;9.3757;-0.0481;1.188;-4.5387;-7.3;-21.96;-183.4;22330.0;17.16;2.81;-43.26;276.31;-0.31;-17.06;5.0;;;;NaN;;;;0 / 0;47952;2021-12-18 13:53:27:030
8.475;-1.596;4.65;-1.6616;-8.916;3.735;-2.4663;1.4472;6.3448;4.68;-163.26;102.93;11668.0;-11.59;5.21;-45.71;138.36;59.48;20.67;5.0;;;;NaN;;;;0 / 0;48453;2021-12-18 13:53:27:531
3.899;-3.264;-1.768;-4.9752;-7.58;-3.7302;4.8875;0.2666;2.0717;11.01;-134.57;36.48;43487.0;-45.11;14.94;-13.61;350.6;56.72;116.47;0.0;;;;NaN;;;;0 / 0;48953;2021-12-18 13:53:28:031
5.115;-2.855;0.119;-4.774;-8.5665;0.182;2.985;-1.6129;-2.6024;-47.42;8.01;-38.19;12688.0;-46.44;4.69;-13.5;20.49;60.85;87.82;0.0;;;;NaN;;;;0 / 0;49453;2021-12-18 13:53:28:531
4.7051;-4.164;-0.768;-6.45;-7.2927;-1.1827;3.5114;-0.1613;2.3365;-84.43;20.99;2.92;630.0;-43.09;19.2;-16.99;10.93;48.04;100.39;0.0;;;;NaN;;;;0 / 0;49952;2021-12-18 13:53:29:030
1.7831;-6.367;-2.996;-7.5561;-1.6424;-6.0334;1.5491;-3.2487;6.1467;180.73;-155.72;95.51;569.0;-25.26;43.2;-12.49;15.88;8.06;87.48;0.0;;;;NaN;;;;0 / 0;50453;2021-12-18 13:53:29:531
0.402;-8.631;-1.867;-8.4611;-4.525;-2.0207;3.6698;-1.2393;1.0947;11.64;-84.87;131.77;519.0;-13.39;44.7;-17.89;26.03;5.88;77.87;0.0;;;;NaN;;;;0 / 0;50953;2021-12-18 13:53:30:031
-6.051;-21.377;-3.027;-7.2879;2.1356;6.2058;4.7426;11.2397;-7.7875;92.24;-259.03;40.51;293.0;-4.39;45.9;-16.31;17.63;-12.58;49.59;0.0;;;;NaN;;;;0 / 0;51454;2021-12-18 13:53:30:532
-8.085;-9.2081;4.655;-7.3837;5.8514;2.715;5.2288;-0.174;-4.4242;-39.85;149.43;42.37;373.0;-4.91;43.2;-21.41;29.26;-24.86;80.15;0.0;;;;NaN;;;;0 / 0;51953;2021-12-18 13:53:31:031
-5.397;-10.1389;6.9671;-8.0062;3.8978;4.1085;2.2073;0.9974;-8.5565;-8.4;-19.69;-0.26;163.0;-5.34;45.54;-13.09;17.58;-19.06;85.2;0.0;;;;NaN;;;;0 / 0;52453;2021-12-18 13:53:31:531
-4.614;-13.698;-0.8299;-9.7588;0.8906;-0.34;-1.6442;2.5706;0.4355;14.41;68.56;-28.06;162.0;-5.21;44.34;-18.24;22.36;-5.21;92.0;0.0;;;;NaN;;;;0 / 0;52953;2021-12-18 13:53:32:031
-4.928;-12.667;-4.717;-8.6383;3.3519;-3.213;1.433;2.704;0.1957;-28.58;20.14;10.15;243.0;-6.11;46.39;-11.81;15.83;-19.99;93.57;0.0;;;;NaN;;;;0 / 0;53453;2021-12-18 13:53:32:531
-1.254;-9.801;1.007;-9.6774;1.2402;0.9816;-1.9634;-0.6487;-1.2541;-11.6;101.78;-10.67;136.0;-5.94;47.4;-17.16;10.94;-17.03;124.49;0.0;;;;NaN;;;;0 / 0;53952;2021-12-18 13:53:33:030
-5.318;-7.168;1.077;-7.7285;5.9185;1.1827;2.0791;-2.1448;-0.012;29.24;34.9;-12.16;66.0;-0.41;46.61;-23.34;28.33;-31.37;80.59;0.0;;;;NaN;;;;0 / 0;54660;2021-12-18 13:53:33:738
-5.318;-7.168;1.077;-7.7285;5.9185;1.1827;2.0791;-2.1448;-0.012;29.24;34.9;-12.16;66.0;-0.41;46.61;-23.34;28.33;-31.37;80.59;0.0;;;;NaN;;;;0 / 0;54661;2021-12-18 13:53:33:739
-5.318;-7.168;1.077;-7.7285;5.9185;1.1827;2.0791;-2.1448;-0.012;29.24;34.9;-12.16;66.0;-0.41;46.61;-23.34;28.33;-31.37;80.59;0.0;;;;NaN;;;;0 / 0;54662;2021-12-18 13:53:33:740
-5.318;-7.168;1.077;-7.7285;5.9185;1.1827;2.0791;-2.1448;-0.012;29.24;34.9;-12.16;66.0;-0.41;46.61;-23.34;28.33;-31.37;80.59;0.0;;;;NaN;;;;0 / 0;54662;2021-12-18 13:53:33:740
-5.318;-7.168;1.077;-7.7285;5.9185;1.1827;2.0791;-2.1448;-0.012;29.24;34.9;-12.16;66.0;-0.41;46.61;-23.34;28.33;-31.37;80.59;0.0;;;;NaN;;;;0 / 0;54663;2021-12-18 13:53:33:741
-5.318;-7.168;1.077;-7.7285;5.9185;1.1827;2.0791;-2.1448;-0.012;29.24;34.9;-12.16;66.0;-0.41;46.61;-23.34;28.33;-31.37;80.59;0.0;;;;NaN;;;;0 / 0;54664;2021-12-18 13:53:33:742
-5.318;-7.168;1.077;-7.7285;5.9185;1.1827;2.0791;-2.1448;-0.012;29.24;34.9;-12.16;66.0;-0.41;46.61;-23.34;28.33;-31.37;80.59;0.0;;;;NaN;;;;0 / 0;54665;2021-12-18 13:53:33:743
-5.318;-7.168;1.077;-7.7285;5.9185;1.1827;2.0791;-2.1448;-0.012;29.24;34.9;-12.16;66.0;-0.41;46.61;-23.34;28.33;-31.37;80.59;0.0;;;;NaN;;;;0 / 0;54665;2021-12-18 13:53:33:743
-5.318;-7.168;1.077;-7.7285;5.9185;1.1827;2.0791;-2.1448;-0.012;29.24;34.9;-12.16;66.0;-0.41;46.61;-23.34;28.33;-31.37;80.59;0.0;;;;NaN;;;;0 / 0;54666;2021-12-18 13:53:33:744
-2.398;-9.153;-3.334;-8.9447;2.241;-3.3471;-2.194;0.358;3.2452;-54.33;61.76;-34.66;86.0;-3.36;49.01;-1.14;0.04;-15.72;107.78;0.0;;;;NaN;;;;0 / 0;54858;2021-12-18 13:53:33:936
-2.75;-8.1499;-0.078;-9.2943;3.1268;-0.0766;-1.2857;-1.4113;-0.4208;-9.04;-40.58;-0.57;47.0;-5.51;47.34;-0.84;2.1;-17.97;84.49;0.0;;;;NaN;;;;0 / 0;55362;2021-12-18 13:53:34:440
-1.6151;-5.9051;0.4541;-9.5385;-0.905;-2.083;-4.5552;1.4992;6.6274;-15.9;7.11;1.16;355.0;-5.21;45.9;2.1;356.26;5.3;102.32;0.0;;;;NaN;;;;0 / 0;55862;2021-12-18 13:53:34:940
-4.705;-9.0469;-1.239;-8.6143;3.5003;3.1173;-0.1575;2.8876;-4.9176;-13.14;-105.35;-3.16;254.0;-4.44;43.91;7.91;350.97;-20.91;70.11;0.0;;;;NaN;;;;0 / 0;56361;2021-12-18 13:53:35:439
-10.859;-11.037;5.423;-6.5984;6.4931;3.2417;7.1526;1.2496;-4.2848;23.58;-19.4;21.11;505.0;-6.3;44.81;1.56;359.84;-15.61;92.21;0.0;;;;NaN;;;;0 / 0;56858;2021-12-18 13:53:35:936
-3.87;-7.042;3.906;-7.7333;4.2473;4.2808;8.0672;3.2986;-5.3918;-6.14;-99.07;-5.69;589.0;-5.29;41.7;11.34;341.06;-40.78;73.6;0.0;;;;NaN;;;;0 / 0;57361;2021-12-18 13:53:36:439
-5.337;-13.5949;0.825;-9.1171;3.5721;0.5459;1.3684;2.5314;-1.7793;-5.91;50.7;-39.68;328.0;-3.6;43.69;2.76;355.94;-9.25;90.88;0.0;;;;NaN;;;;0 / 0;57858;2021-12-18 13:53:36:936
-8.2309;-16.432;8.6;-9.6103;1.8675;0.5986;-0.7743;3.6188;-2.6102;-16.65;-7.06;-18.33;518.0;-3.41;42.0;9.9;345.3;-20.58;91.23;0.0;;;;NaN;;;;0 / 0;58358;2021-12-18 13:53:37:436
-1.158;-13.03;-0.555;-9.7588;0.8667;-0.407;-1.6068;5.2411;-0.422;-3.49;30.56;-17.58;161.0;-2.34;44.34;2.81;353.56;-14.62;69.34;0.0;;;;NaN;;;;0 / 0;58858;2021-12-18 13:53:37:936
-6.185;-9.61;3.7961;-6.6032;6.6032;2.9928;6.8632;0.8346;-4.7433;17.94;82.06;-29.55;552.0;-5.29;44.21;4.14;353.41;-45.3;80.45;0.0;;;;NaN;;;;0 / 0;59358;2021-12-18 13:53:38:436
-6.185;-9.61;3.7961;-6.6032;6.6032;2.9928;6.8632;0.8346;-4.7433;17.94;82.06;-29.55;552.0;-5.29;44.21;4.14;353.41;-45.3;80.45;0.0;;;;NaN;;;;0 / 0;59359;2021-12-18 13:53:38:437
-6.185;-9.61;3.7961;-6.6032;6.6032;2.9928;6.8632;0.8346;-4.7433;17.94;82.06;-29.55;552.0;-5.29;44.21;4.14;353.41;-45.3;80.45;0.0;;;;NaN;;;;0 / 0;59360;2021-12-18 13:53:38:438
-6.185;-9.61;3.7961;-6.6032;6.6032;2.9928;6.8632;0.8346;-4.7433;17.94;82.06;-29.55;552.0;-5.29;44.21;4.14;353.41;-45.3;80.45;0.0;;;;NaN;;;;0 / 0;59361;2021-12-18 13:53:38:439
-6.185;-9.61;3.7961;-6.6032;6.6032;2.9928;6.8632;0.8346;-4.7433;17.94;82.06;-29.55;552.0;-5.29;44.21;4.14;353.41;-45.3;80.45;0.0;;;;NaN;;;;0 / 0;59362;2021-12-18 13:53:38:440
-6.185;-9.61;3.7961;-6.6032;6.6032;2.9928;6.8632;0.8346;-4.7433;17.94;82.06;-29.55;552.0;-5.29;44.21;4.14;353.41;-45.3;80.45;0.0;;;;NaN;;;;0 / 0;59362;2021-12-18 13:53:38:440
-6.185;-9.61;3.7961;-6.6032;6.6032;2.9928;6.8632;0.8346;-4.7433;17.94;82.06;-29.55;552.0;-5.29;44.21;4.14;353.41;-45.3;80.45;0.0;;;;NaN;;;;0 / 0;59363;2021-12-18 13:53:38:441
-6.185;-9.61;3.7961;-6.6032;6.6032;2.9928;6.8632;0.8346;-4.7433;17.94;82.06;-29.55;552.0;-5.29;44.21;4.14;353.41;-45.3;80.45;0.0;;;;NaN;;;;0 / 0;59364;2021-12-18 13:53:38:442
-6.185;-9.61;3.7961;-6.6032;6.6032;2.9928;6.8632;0.8346;-4.7433;17.94;82.06;-29.55;552.0;-5.29;44.21;4.14;353.41;-45.3;80.45;0.0;;;;NaN;;;;0 / 0;59364;2021-12-18 13:53:38:442
-6.185;-9.61;3.7961;-6.6032;6.6032;2.9928;6.8632;0.8346;-4.7433;17.94;82.06;-29.55;552.0;-5.29;44.21;4.14;353.41;-45.3;80.45;0.0;;;;NaN;;;;0 / 0;59365;2021-12-18 13:53:38:443
-6.185;-9.61;3.7961;-6.6032;6.6032;2.9928;6.8632;0.8346;-4.7433;17.94;82.06;-29.55;552.0;-5.29;44.21;4.14;353.41;-45.3;80.45;0.0;;;;NaN;;;;0 / 0;59365;2021-12-18 13:53:38:443
-3.173;-6.912;-1.8401;-8.667;3.9648;-2.308;-1.1418;11.0877;1.6925;-6.09;-113.62;-0.09;552.0;-2.21;40.91;7.14;350.22;-11.32;85.97;0.0;;;;NaN;;;;0 / 0;59556;2021-12-18 13:53:38:634
-3.2929;-8.001;1.3061;-8.9735;3.6823;1.4509;6.8782;0.6236;-5.8431;24.8;-66.06;59.33;170.0;-7.31;43.44;-1.56;10.87;-42.12;56.71;0.0;;;;NaN;;;;0 / 0;60053;2021-12-18 13:53:39:131
-3.949;-11.242;2.7;-9.4332;2.0446;1.7238;-0.2004;-2.7644;-9.7142;37.92;-228.81;39.62;121.0;-5.94;41.64;9.96;345.12;-33.49;74.79;0.0;;;;NaN;;;;0 / 0;60554;2021-12-18 13:53:39:632
-11.084;-11.798;7.281;-7.2736;5.8754;2.964;6.8357;0.7463;-6.5751;11.74;109.36;-42.26;99.0;-7.31;44.29;0.54;3.15;-36.8;67.83;0.0;;;;NaN;;;;0 / 0;61056;2021-12-18 13:53:40:134
-4.6931;-5.0171;-1.1749;-5.0422;4.3048;7.2257;1.3157;-4.0794;-0.2972;-15.72;-37.66;16.24;247.0;-6.84;42.11;9.66;345.39;-24.09;108.26;0.0;;;;NaN;;;;0 / 0;61553;2021-12-18 13:53:40:631
-5.06;-11.415;-0.1669;-8.9687;3.9696;-0.1293;1.9714;6.7492;-0.519;9.94;120.47;-31.16;84.0;-6.0;44.04;-3.54;5.34;-8.23;90.11;0.0;;;;NaN;;;;0 / 0;62053;2021-12-18 13:53:41:131
-1.285;-11.652;-10.9361;-9.4188;2.2649;-1.5179;-0.6216;5.3234;14.0193;-50.85;152.69;28.06;330.0;-6.9;42.9;7.91;348.71;-16.66;100.31;0.0;;;;NaN;;;;0 / 0;62554;2021-12-18 13:53:41:632
-0.5449;-13.701;-0.7339;-9.6151;1.7095;-0.8906;-1.8649;3.6081;0.7446;-3.61;82.69;-48.25;83.0;-5.81;43.74;-1.14;0.6;-10.04;95.29;0.0;;;;NaN;;;;0 / 0;63052;2021-12-18 13:53:42:130
-6.407;-14.05;-1.819;-7.3598;2.2075;-6.0908;2.3062;1.7674;0.9394;2.31;-0.83;3.02;238.0;-6.6;43.01;8.46;347.11;-20.37;96.49;0.0;;;;NaN;;;;0 / 0;63553;2021-12-18 13:53:42:631
-2.984;-7.5079;6.9941;-7.9009;5.8083;0.1341;-0.1727;-1.687;-8.3;2.31;-0.83;3.02;238.0;-6.71;42.41;9.3;343.3;-36.32;89.03;0.0;;;;NaN;;;;0 / 0;64053;2021-12-18 13:53:43:131
-2.984;-7.5079;6.9941;-7.9009;5.8083;0.1341;-0.1727;-1.687;-8.3;2.31;-0.83;3.02;238.0;-6.71;42.41;9.3;343.3;-36.32;89.03;0.0;;;;NaN;;;;0 / 0;64054;2021-12-18 13:53:43:132
-2.984;-7.5079;6.9941;-7.9009;5.8083;0.1341;-0.1727;-1.687;-8.3;2.31;-0.83;3.02;238.0;-6.71;42.41;9.3;343.3;-36.32;89.03;0.0;;;;NaN;;;;0 / 0;64056;2021-12-18 13:53:43:134
-2.984;-7.5079;6.9941;-7.9009;5.8083;0.1341;-0.1727;-1.687;-8.3;2.31;-0.83;3.02;238.0;-6.71;42.41;9.3;343.3;-36.32;89.03;0.0;;;;NaN;;;;0 / 0;64057;2021-12-18 13:53:43:135
-2.984;-7.5079;6.9941;-7.9009;5.8083;0.1341;-0.1727;-1.687;-8.3;2.31;-0.83;3.02;238.0;-6.71;42.41;9.3;343.3;-36.32;89.03;0.0;;;;NaN;;;;0 / 0;64058;2021-12-18 13:53:43:136
-2.984;-7.5079;6.9941;-7.9009;5.8083;0.1341;-0.1727;-1.687;-8.3;2.31;-0.83;3.02;238.0;-6.71;42.41;9.3;343.3;-36.32;89.03;0.0;;;;NaN;;;;0 / 0;64058;2021-12-18 13:53:43:136
-2.984;-7.5079;6.9941;-7.9009;5.8083;0.1341;-0.1727;-1.687;-8.3;2.31;-0.83;3.02;238.0;-6.71;42.41;9.3;343.3;-36.32;89.03;0.0;;;;NaN;;;;0 / 0;64059;2021-12-18 13:53:43:137
-4.686;-10.251;0.5261;-8.9064;4.0749;0.4501;-0.9146;6.2047;2.4494;-26.17;146.85;-37.74;65.0;-6.24;45.54;1.26;358.24;-8.37;93.59;0.0;;;;NaN;;;;0 / 0;64257;2021-12-18 13:53:43:335
-7.0699;-14.7079;7.7501;-6.8714;1.6185;-6.8091;0.3386;2.9377;6.7894;-29.87;35.05;28.05;660.0;-7.99;44.7;9.0;344.88;-9.5;134.74;0.0;;;;NaN;;;;0 / 0;64756;2021-12-18 13:53:43:834
-0.4399;-13.4299;-0.083;-9.7731;0.7709;0.1772;-1.9124;2.0751;1.8792;-3.89;67.18;-47.47;67.0;-6.19;45.19;2.51;355.26;-12.75;95.23;0.0;;;;NaN;;;;0 / 0;65256;2021-12-18 13:53:44:334
-6.0769;-13.492;-0.588;-9.0214;2.9305;-2.49;-1.6348;0.2549;2.9676;-56.67;62.6;-61.53;437.0;-5.4;42.6;11.7;342.36;-17.39;105.43;0.0;;;;NaN;;;;0 / 0;65756;2021-12-18 13:53:44:834
-2.637;-8.1379;0.045;-7.7812;4.6974;-3.6823;-0.3997;4.5899;-1.8695;19.29;-142.77;-16.06;58.0;-6.54;43.61;9.0;347.61;-17.74;87.71;0.0;;;;NaN;;;;0 / 0;66420;2021-12-18 13:53:45:498
-2.637;-8.1379;0.045;-7.7812;4.6974;-3.6823;-0.3997;4.5899;-1.8695;19.29;-142.77;-16.06;58.0;-6.54;43.61;9.0;347.61;-17.74;87.71;0.0;;;;NaN;;;;0 / 0;66421;2021-12-18 13:53:45:499
-2.637;-8.1379;0.045;-7.7812;4.6974;-3.6823;-0.3997;4.5899;-1.8695;19.29;-142.77;-16.06;58.0;-6.54;43.61;9.0;347.61;-17.74;87.71;0.0;;;;NaN;;;;0 / 0;66422;2021-12-18 13:53:45:500
-2.637;-8.1379;0.045;-7.7812;4.6974;-3.6823;-0.3997;4.5899;-1.8695;19.29;-142.77;-16.06;58.0;-6.54;43.61;9.0;347.61;-17.74;87.71;0.0;;;;NaN;;;;0 / 0;66427;2021-12-18 13:53:45:505
-3.7931;-4.6099;-0.552;-7.7812;4.6974;-3.6823;-0.3997;4.5899;-1.8695;-11.79;167.97;29.5;47.0;-6.41;44.04;7.56;345.42;-28.62;115.32;0.0;;;;NaN;;;;0 / 0;66444;2021-12-18 13:53:45:522
-3.7931;-4.6099;-0.552;-8.6479;4.3622;-1.5419;-3.4924;-3.6772;-0.0865;-11.79;167.97;29.5;47.0;-6.41;44.04;7.56;345.42;-28.62;115.32;0.0;;;;NaN;;;;0 / 0;66445;2021-12-18 13:53:45:523
-3.7931;-4.6099;-0.552;-8.6479;4.3622;-1.5419;-3.4924;-3.6772;-0.0865;-11.79;167.97;29.5;47.0;-6.41;44.04;7.56;345.42;-28.62;115.32;0.0;;;;NaN;;;;0 / 0;66445;2021-12-18 13:53:45:523
-3.7931;-4.6099;-0.552;-8.6479;4.3622;-1.5419;-3.4924;-3.6772;-0.0865;-11.79;167.97;29.5;47.0;-6.41;44.04;7.56;345.42;-28.62;115.32;0.0;;;;NaN;;;;0 / 0;66446;2021-12-18 13:53:45:524
-3.7931;-4.6099;-0.552;-8.6479;4.3622;-1.5419;-3.4924;-3.6772;-0.0865;-11.79;167.97;29.5;47.0;-6.41;44.04;7.56;345.42;-28.62;115.32;0.0;;;;NaN;;;;0 / 0;66446;2021-12-18 13:53:45:524
-3.7931;-4.6099;-0.552;-8.6479;4.3622;-1.5419;-3.4924;-3.6772;-0.0865;-11.79;167.97;29.5;47.0;-6.41;44.04;7.56;345.42;-28.62;115.32;0.0;;;;NaN;;;;0 / 0;66447;2021-12-18 13:53:45:525
-3.7931;-4.6099;-0.552;-8.6479;4.3622;-1.5419;-3.4924;-3.6772;-0.0865;-11.79;167.97;29.5;47.0;-6.41;44.04;7.56;345.42;-28.62;115.32;0.0;;;;NaN;;;;0 / 0;66448;2021-12-18 13:53:45:526
-3.7931;-4.6099;-0.552;-8.6479;4.3622;-1.5419;-3.4924;-3.6772;-0.0865;-11.79;167.97;29.5;47.0;-6.41;44.04;7.56;345.42;-28.62;115.32;0.0;;;;NaN;;;;0 / 0;66448;2021-12-18 13:53:45:526
-3.7931;-4.6099;-0.552;-8.6479;4.3622;-1.5419;-3.4924;-3.6772;-0.0865;-11.79;167.97;29.5;47.0;-6.41;44.04;7.56;345.42;-28.62;115.32;0.0;;;;NaN;;;;0 / 0;66449;2021-12-18 13:53:45:527
-3.7931;-4.6099;-0.552;-8.6479;4.3622;-1.5419;-3.4924;-3.6772;-0.0865;-11.79;167.97;29.5;47.0;-6.41;44.04;7.56;345.42;-28.62;115.32;0.0;;;;NaN;;;;0 / 0;66449;2021-12-18 13:53:45:527
-3.7931;-4.6099;-0.552;-8.6479;4.3622;-1.5419;-3.4924;-3.6772;-0.0865;-11.79;167.97;29.5;47.0;-6.41;44.04;7.56;345.42;-28.62;115.32;0.0;;;;NaN;;;;0 / 0;66450;2021-12-18 13:53:45:528
-0.902;-13.6459;-0.371;-9.7731;0.5459;-0.565;-1.6833;3.4684;0.3607;10.58;-28.76;-64.8;47.0;-6.79;44.59;3.0;353.24;-15.55;107.37;0.0;;;;NaN;;;;0 / 0;66741;2021-12-18 13:53:45:819
-6.23;-12.5801;3.501;-8.8921;3.3519;2.4277;3.2878;3.2482;-4.2888;-12.21;-58.1;27.61;673.0;-6.71;43.01;9.6;348.15;-19.98;74.73;0.0;;;;NaN;;;;0 / 0;67241;2021-12-18 13:53:46:319
-4.878;-7.946;-2.767;-8.011;4.9177;-2.7916;0.4268;0.2753;0.2927;60.5;-233.05;25.91;18.0;-6.19;43.09;10.91;347.91;-10.04;72.78;0.0;;;;NaN;;;;0 / 0;67891;2021-12-18 13:53:46:969
-4.878;-7.946;-2.767;-8.011;4.9177;-2.7916;0.4268;0.2753;0.2927;60.5;-233.05;25.91;18.0;-6.19;43.09;10.91;347.91;-10.04;72.78;0.0;;;;NaN;;;;0 / 0;67892;2021-12-18 13:53:46:970
-4.878;-7.946;-2.767;-8.011;4.9177;-2.7916;0.4268;0.2753;0.2927;60.5;-233.05;25.91;18.0;-6.19;43.09;10.91;347.91;-10.04;72.78;0.0;;;;NaN;;;;0 / 0;67893;2021-12-18 13:53:46:971
-4.878;-7.946;-2.767;-8.011;4.9177;-2.7916;0.4268;0.2753;0.2927;60.5;-233.05;25.91;18.0;-6.19;43.09;10.91;347.91;-10.04;72.78;0.0;;;;NaN;;;;0 / 0;67893;2021-12-18 13:53:46:971
-4.878;-7.946;-2.767;-8.011;4.9177;-2.7916;0.4268;0.2753;0.2927;60.5;-233.05;25.91;18.0;-6.19;43.09;10.91;347.91;-10.04;72.78;0.0;;;;NaN;;;;0 / 0;67894;2021-12-18 13:53:46:972
-4.878;-7.946;-2.767;-8.011;4.9177;-2.7916;0.4268;0.2753;0.2927;60.5;-233.05;25.91;18.0;-5.89;43.5;9.66;342.8;-30.1;109.21;0.0;;;;NaN;;;;0 / 0;67894;2021-12-18 13:53:46:972
-4.878;-7.946;-2.767;-8.011;4.9177;-2.7916;0.4268;0.2753;0.2927;60.5;-233.05;25.91;18.0;-5.89;43.5;9.66;342.8;-30.1;109.21;0.0;;;;NaN;;;;0 / 0;67895;2021-12-18 13:53:46:973
-4.878;-7.946;-2.767;-8.011;4.9177;-2.7916;0.4268;0.2753;0.2927;60.5;-233.05;25.91;18.0;-5.89;43.5;9.66;342.8;-30.1;109.21;0.0;;;;NaN;;;;0 / 0;67895;2021-12-18 13:53:46:973
-4.878;-7.946;-2.767;-8.011;4.9177;-2.7916;0.4268;0.2753;0.2927;60.5;-233.05;25.91;18.0;-5.89;43.5;9.66;342.8;-30.1;109.21;0.0;;;;NaN;;;;0 / 0;67896;2021-12-18 13:53:46:974
-4.878;-7.946;-2.767;-8.011;4.9177;-2.7916;0.4268;0.2753;0.2927;60.5;-233.05;25.91;18.0;-5.89;43.5;9.66;342.8;-30.1;109.21;0.0;;;;NaN;;;;0 / 0;67896;2021-12-18 13:53:46:974
-4.878;-7.946;-2.767;-8.011;4.9177;-2.7916;0.4268;0.2753;0.2927;60.5;-233.05;25.91;18.0;-5.89;43.5;9.66;342.8;-30.1;109.21;0.0;;;;NaN;;;;0 / 0;67897;2021-12-18 13:53:46:975
-4.878;-7.946;-2.767;-8.011;4.9177;-2.7916;0.4268;0.2753;0.2927;60.5;-233.05;25.91;18.0;-5.89;43.5;9.66;342.8;-30.1;109.21;0.0;;;;NaN;;;;0 / 0;67897;2021-12-18 13:53:46:975
-4.878;-7.946;-2.767;-8.011;4.9177;-2.7916;0.4268;0.2753;0.2927;60.5;-233.05;25.91;18.0;-5.89;43.5;9.66;342.8;-30.1;109.21;0.0;;;;NaN;;;;0 / 0;67897;2021-12-18 13:53:46:975
-4.878;-7.946;-2.767;-8.011;4.9177;-2.7916;0.4268;0.2753;0.2927;60.5;-233.05;25.91;18.0;-5.89;43.5;9.66;342.8;-30.1;109.21;0.0;;;;NaN;;;;0 / 0;67898;2021-12-18 13:53:46:976
-4.878;-7.946;-2.767;-8.011;4.9177;-2.7916;0.4268;0.2753;0.2927;60.5;-233.05;25.91;18.0;-5.89;43.5;9.66;342.8;-30.1;109.21;0.0;;;;NaN;;;;0 / 0;67898;2021-12-18 13:53:46:976
-4.5881;-4.593;-1.0721;-8.011;4.9177;-2.7916;0.4268;0.2753;0.2927;60.5;-233.05;25.91;18.0;-5.89;43.5;9.66;342.8;-30.1;109.21;0.0;;;;NaN;;;;0 / 0;67910;2021-12-18 13:53:46:988
-4.5881;-4.593;-1.0721;-8.011;4.9177;-2.7916;0.4268;0.2753;0.2927;60.5;-233.05;25.91;18.0;-5.89;43.5;9.66;342.8;-30.1;109.21;0.0;;;;NaN;;;;0 / 0;67911;2021-12-18 13:53:46:989
-4.5881;-4.593;-1.0721;-8.011;4.9177;-2.7916;0.4268;0.2753;0.2927;60.5;-233.05;25.91;18.0;-5.89;43.5;9.66;342.8;-30.1;109.21;0.0;;;;NaN;;;;0 / 0;67912;2021-12-18 13:53:46:990
-4.5881;-4.593;-1.0721;-8.011;4.9177;-2.7916;0.4268;0.2753;0.2927;60.5;-233.05;25.91;18.0;-5.89;43.5;9.66;342.8;-30.1;109.21;0.0;;;;NaN;;;;0 / 0;67913;2021-12-18 13:53:46:991
-4.5881;-4.593;-1.0721;-8.011;4.9177;-2.7916;0.4268;0.2753;0.2927;60.5;-233.05;25.91;18.0;-5.89;43.5;9.66;342.8;-30.1;109.21;0.0;;;;NaN;;;;0 / 0;67914;2021-12-18 13:53:46:992
-4.5881;-4.593;-1.0721;-9.7923;0.34;0.4453;0.5259;-2.9091;3.9323;-30.76;186.13;80.07;18.0;-5.89;43.5;9.66;342.8;-30.1;109.21;0.0;;;;NaN;;;;0 / 0;67914;2021-12-18 13:53:46:992
-4.5881;-4.593;-1.0721;-9.7923;0.34;0.4453;0.5259;-2.9091;3.9323;-30.76;186.13;80.07;18.0;-5.89;43.5;9.66;342.8;-30.1;109.21;0.0;;;;NaN;;;;0 / 0;67916;2021-12-18 13:53:46:994
-4.5881;-4.593;-1.0721;-9.7923;0.34;0.4453;0.5259;-2.9091;3.9323;-30.76;186.13;80.07;18.0;-5.89;43.5;9.66;342.8;-30.1;109.21;0.0;;;;NaN;;;;0 / 0;67917;2021-12-18 13:53:46:995
-4.5881;-4.593;-1.0721;-9.7923;0.34;0.4453;0.5259;-2.9091;3.9323;-30.76;186.13;80.07;18.0;-5.89;43.5;9.66;342.8;-30.1;109.21;0.0;;;;NaN;;;;0 / 0;67918;2021-12-18 13:53:46:996
-4.5881;-4.593;-1.0721;-9.7923;0.34;0.4453;0.5259;-2.9091;3.9323;-30.76;186.13;80.07;18.0;-5.89;43.5;9.66;342.8;-30.1;109.21;0.0;;;;NaN;;;;0 / 0;67919;2021-12-18 13:53:46:997
-4.5881;-4.593;-1.0721;-9.7923;0.34;0.4453;0.5259;-2.9091;3.9323;-30.76;186.13;80.07;18.0;-5.89;43.5;9.66;342.8;-30.1;109.21;0.0;;;;NaN;;;;0 / 0;67920;2021-12-18 13:53:46:998
-4.5881;-4.593;-1.0721;-9.7923;0.34;0.4453;0.5259;-2.9091;3.9323;-30.76;186.13;80.07;18.0;-5.89;43.5;9.66;342.8;-30.1;109.21;0.0;;;;NaN;;;;0 / 0;67921;2021-12-18 13:53:46:999
-4.5881;-4.593;-1.0721;-9.7923;0.34;0.4453;0.5259;-2.9091;3.9323;-30.76;186.13;80.07;18.0;-5.89;43.5;9.66;342.8;-30.1;109.21;0.0;;;;NaN;;;;0 / 0;67923;2021-12-18 13:53:47:001
-4.5881;-4.593;-1.0721;-9.7923;0.34;0.4453;0.5259;-2.9091;3.9323;-30.76;186.13;80.07;18.0;-5.89;43.5;9.66;342.8;-30.1;109.21;0.0;;;;NaN;;;;0 / 0;67923;2021-12-18 13:53:47:001
-4.5881;-4.593;-1.0721;-9.7923;0.34;0.4453;0.5259;-2.9091;3.9323;-30.76;186.13;80.07;18.0;-5.89;43.5;9.66;342.8;-30.1;109.21;0.0;;;;NaN;;;;0 / 0;67924;2021-12-18 13:53:47:002
-4.5881;-4.593;-1.0721;-9.7923;0.34;0.4453;0.5259;-2.9091;3.9323;-30.76;186.13;80.07;18.0;-5.89;43.5;9.66;342.8;-30.1;109.21;0.0;;;;NaN;;;;0 / 0;67924;2021-12-18 13:53:47:002
-4.5881;-4.593;-1.0721;-9.7923;0.34;0.4453;0.5259;-2.9091;3.9323;-30.76;186.13;80.07;18.0;-5.89;43.5;9.66;342.8;-30.1;109.21;0.0;;;;NaN;;;;0 / 0;67925;2021-12-18 13:53:47:003
-4.5881;-4.593;-1.0721;-9.7923;0.34;0.4453;0.5259;-2.9091;3.9323;-30.76;186.13;80.07;18.0;-5.89;43.5;9.66;342.8;-30.1;109.21;0.0;;;;NaN;;;;0 / 0;67925;2021-12-18 13:53:47:003
-4.5881;-4.593;-1.0721;-9.7923;0.34;0.4453;0.5259;-2.9091;3.9323;-30.76;186.13;80.07;18.0;-5.89;43.5;9.66;342.8;-30.1;109.21;0.0;;;;NaN;;;;0 / 0;67925;2021-12-18 13:53:47:003
-4.5881;-4.593;-1.0721;-9.7923;0.34;0.4453;0.5259;-2.9091;3.9323;-30.76;186.13;80.07;18.0;-5.89;43.5;9.66;342.8;-30.1;109.21;0.0;;;;NaN;;;;0 / 0;67926;2021-12-18 13:53:47:004
-4.5881;-4.593;-1.0721;-9.7923;0.34;0.4453;0.5259;-2.9091;3.9323;-30.76;186.13;80.07;18.0;-5.89;43.5;9.66;342.8;-30.1;109.21;0.0;;;;NaN;;;;0 / 0;67926;2021-12-18 13:53:47:004
-4.5881;-4.593;-1.0721;-9.7923;0.34;0.4453;0.5259;-2.9091;3.9323;-30.76;186.13;80.07;18.0;-5.89;43.5;9.66;342.8;-30.1;109.21;0.0;;;;NaN;;;;0 / 0;67930;2021-12-18 13:53:47:008
-4.5881;-4.593;-1.0721;-9.7923;0.34;0.4453;0.5259;-2.9091;3.9323;-30.76;186.13;80.07;18.0;-5.89;43.5;9.66;342.8;-30.1;109.21;0.0;;;;NaN;;;;0 / 0;67951;2021-12-18 13:53:47:029
-4.5881;-4.593;-1.0721;-9.7923;0.34;0.4453;0.5259;-2.9091;3.9323;-30.76;186.13;80.07;18.0;-5.89;43.5;9.66;342.8;-30.1;109.21;0.0;;;;NaN;;;;0 / 0;67952;2021-12-18 13:53:47:030
-4.5881;-4.593;-1.0721;-9.7923;0.34;0.4453;0.5259;-2.9091;3.9323;-30.76;186.13;80.07;18.0;-5.89;43.5;9.66;342.8;-30.1;109.21;0.0;;;;NaN;;;;0 / 0;67952;2021-12-18 13:53:47:030
-4.5881;-4.593;-1.0721;-9.7923;0.34;0.4453;0.5259;-2.9091;3.9323;-30.76;186.13;80.07;18.0;-5.89;43.5;9.66;342.8;-30.1;109.21;0.0;;;;NaN;;;;0 / 0;67953;2021-12-18 13:53:47:031
-4.5881;-4.593;-1.0721;-9.7923;0.34;0.4453;0.5259;-2.9091;3.9323;-30.76;186.13;80.07;18.0;-5.89;43.5;9.66;342.8;-30.1;109.21;0.0;;;;NaN;;;;0 / 0;67953;2021-12-18 13:53:47:031
-4.5881;-4.593;-1.0721;-9.7923;0.34;0.4453;0.5259;-2.9091;3.9323;-30.76;186.13;80.07;18.0;-5.89;43.5;9.66;342.8;-30.1;109.21;0.0;;;;NaN;;;;0 / 0;67954;2021-12-18 13:53:47:032
-4.5881;-4.593;-1.0721;-9.7923;0.34;0.4453;0.5259;-2.9091;3.9323;-30.76;186.13;80.07;18.0;-5.89;43.5;9.66;342.8;-30.1;109.21;0.0;;;;NaN;;;;0 / 0;67954;2021-12-18 13:53:47:032
-4.5881;-4.593;-1.0721;-9.7923;0.34;0.4453;0.5259;-2.9091;3.9323;-30.76;186.13;80.07;18.0;-5.89;43.5;9.66;342.8;-30.1;109.21;0.0;;;;NaN;;;;0 / 0;67954;2021-12-18 13:53:47:032
-4.5881;-4.593;-1.0721;-9.7923;0.34;0.4453;0.5259;-2.9091;3.9323;-30.76;186.13;80.07;18.0;-5.89;43.5;9.66;342.8;-30.1;109.21;0.0;;;;NaN;;;;0 / 0;67955;2021-12-18 13:53:47:033
-4.5881;-4.593;-1.0721;-9.7923;0.34;0.4453;0.5259;-2.9091;3.9323;-30.76;186.13;80.07;18.0;-5.89;43.5;9.66;342.8;-30.1;109.21;0.0;;;;NaN;;;;0 / 0;67955;2021-12-18 13:53:47:033
-4.5881;-4.593;-1.0721;-9.7923;0.34;0.4453;0.5259;-2.9091;3.9323;-30.76;186.13;80.07;18.0;-5.89;43.5;9.66;342.8;-30.1;109.21;0.0;;;;NaN;;;;0 / 0;67955;2021-12-18 13:53:47:033
-4.5881;-4.593;-1.0721;-9.7923;0.34;0.4453;0.5259;-2.9091;3.9323;-30.76;186.13;80.07;18.0;-5.89;43.5;9.66;342.8;-30.1;109.21;0.0;;;;NaN;;;;0 / 0;67956;2021-12-18 13:53:47:034
-4.5881;-4.593;-1.0721;-9.7923;0.34;0.4453;0.5259;-2.9091;3.9323;-30.76;186.13;80.07;18.0;-5.89;43.5;9.66;342.8;-30.1;109.21;0.0;;;;NaN;;;;0 / 0;67958;2021-12-18 13:53:47:036
-4.5881;-4.593;-1.0721;-9.7923;0.34;0.4453;0.5259;-2.9091;3.9323;-30.76;186.13;80.07;18.0;-5.89;43.5;9.66;342.8;-30.1;109.21;0.0;;;;NaN;;;;0 / 0;67958;2021-12-18 13:53:47:036
-4.5881;-4.593;-1.0721;-9.7923;0.34;0.4453;0.5259;-2.9091;3.9323;-30.76;186.13;80.07;18.0;-5.89;43.5;9.66;342.8;-30.1;109.21;0.0;;;;NaN;;;;0 / 0;67959;2021-12-18 13:53:47:037
-4.5881;-4.593;-1.0721;-9.7923;0.34;0.4453;0.5259;-2.9091;3.9323;-30.76;186.13;80.07;18.0;-5.89;43.5;9.66;342.8;-30.1;109.21;0.0;;;;NaN;;;;0 / 0;67960;2021-12-18 13:53:47:038
-4.5881;-4.593;-1.0721;-9.7923;0.34;0.4453;0.5259;-2.9091;3.9323;-30.76;186.13;80.07;18.0;-5.89;43.5;9.66;342.8;-30.1;109.21;0.0;;;;NaN;;;;0 / 0;67960;2021-12-18 13:53:47:038
-4.5881;-4.593;-1.0721;-9.7923;0.34;0.4453;0.5259;-2.9091;3.9323;-30.76;186.13;80.07;18.0;-5.89;43.5;9.66;342.8;-30.1;109.21;0.0;;;;NaN;;;;0 / 0;67961;2021-12-18 13:53:47:039
-4.5881;-4.593;-1.0721;-9.7923;0.34;0.4453;0.5259;-2.9091;3.9323;-30.76;186.13;80.07;18.0;-5.89;43.5;9.66;342.8;-30.1;109.21;0.0;;;;NaN;;;;0 / 0;67962;2021-12-18 13:53:47:040
-4.5881;-4.593;-1.0721;-9.7923;0.34;0.4453;0.5259;-2.9091;3.9323;-30.76;186.13;80.07;18.0;-5.89;43.5;9.66;342.8;-30.1;109.21;0.0;;;;NaN;;;;0 / 0;67965;2021-12-18 13:53:47:043
-4.5881;-4.593;-1.0721;-9.7923;0.34;0.4453;0.5259;-2.9091;3.9323;-30.76;186.13;80.07;18.0;-5.89;43.5;9.66;342.8;-30.1;109.21;0.0;;;;NaN;;;;0 / 0;67966;2021-12-18 13:53:47:044
-4.5881;-4.593;-1.0721;-9.7923;0.34;0.4453;0.5259;-2.9091;3.9323;-30.76;186.13;80.07;18.0;-5.89;43.5;9.66;342.8;-30.1;109.21;0.0;;;;NaN;;;;0 / 0;67967;2021-12-18 13:53:47:045
-4.5881;-4.593;-1.0721;-9.7923;0.34;0.4453;0.5259;-2.9091;3.9323;-30.76;186.13;80.07;18.0;-5.89;43.5;9.66;342.8;-30.1;109.21;0.0;;;;NaN;;;;0 / 0;67967;2021-12-18 13:53:47:045
-4.5881;-4.593;-1.0721;-9.7923;0.34;0.4453;0.5259;-2.9091;3.9323;-30.76;186.13;80.07;18.0;-5.89;43.5;9.66;342.8;-30.1;109.21;0.0;;;;NaN;;;;0 / 0;67968;2021-12-18 13:53:47:046
-4.5881;-4.593;-1.0721;-9.7923;0.34;0.4453;0.5259;-2.9091;3.9323;-30.76;186.13;80.07;18.0;-5.89;43.5;9.66;342.8;-30.1;109.21;0.0;;;;NaN;;;;0 / 0;67969;2021-12-18 13:53:47:047
-4.5881;-4.593;-1.0721;-9.7923;0.34;0.4453;0.5259;-2.9091;3.9323;-30.76;186.13;80.07;18.0;-5.89;43.5;9.66;342.8;-30.1;109.21;0.0;;;;NaN;;;;0 / 0;67969;2021-12-18 13:53:47:047
-1.0549;-13.911;2.2181;-9.7923;0.34;0.4453;0.5259;-2.9091;3.9323;-30.76;186.13;80.07;18.0;-5.89;43.5;9.66;342.8;-30.1;109.21;0.0;;;;NaN;;;;0 / 0;67969;2021-12-18 13:53:47:047
-1.0549;-13.911;2.2181;-9.7923;0.34;0.4453;0.5259;-2.9091;3.9323;-30.76;186.13;80.07;18.0;-5.89;43.5;9.66;342.8;-30.1;109.21;0.0;;;;NaN;;;;0 / 0;67970;2021-12-18 13:53:47:048
-1.0549;-13.911;2.2181;-9.7923;0.34;0.4453;0.5259;-2.9091;3.9323;-30.76;186.13;80.07;18.0;-5.89;43.5;9.66;342.8;-30.1;109.21;0.0;;;;NaN;;;;0 / 0;67970;2021-12-18 13:53:47:048
-1.0549;-13.911;2.2181;-9.7923;0.34;0.4453;0.5259;-2.9091;3.9323;-30.76;186.13;80.07;18.0;-3.24;43.61;-11.7;342.8;-30.1;109.21;0.0;;;;NaN;;;;0 / 0;67970;2021-12-18 13:53:47:048
-1.0549;-13.911;2.2181;-9.7923;0.34;0.4453;0.5259;-2.9091;3.9323;-30.76;186.13;80.07;18.0;-3.24;43.61;-11.7;342.8;-30.1;109.21;0.0;;;;NaN;;;;0 / 0;67971;2021-12-18 13:53:47:049
-1.0549;-13.911;2.2181;-9.7923;0.34;0.4453;0.5259;-2.9091;3.9323;-30.76;186.13;80.07;18.0;-3.24;43.61;-11.7;342.8;-30.1;109.21;0.0;;;;NaN;;;;0 / 0;67971;2021-12-18 13:53:47:049
-1.0549;-13.911;2.2181;-9.7923;0.34;0.4453;0.5259;-2.9091;3.9323;-30.76;186.13;80.07;18.0;-3.24;43.61;-11.7;342.8;-30.1;109.21;0.0;;;;NaN;;;;0 / 0;67971;2021-12-18 13:53:47:049
-1.0549;-13.911;2.2181;-9.7923;0.34;0.4453;0.5259;-2.9091;3.9323;-30.76;186.13;80.07;18.0;-3.24;43.61;-11.7;342.8;-30.1;109.21;0.0;;;;NaN;;;;0 / 0;67972;2021-12-18 13:53:47:050
-1.0549;-13.911;2.2181;-9.7923;0.34;0.4453;0.5259;-2.9091;3.9323;-30.76;186.13;80.07;18.0;-3.24;43.61;-11.7;342.8;-30.1;109.21;0.0;;;;NaN;;;;0 / 0;67972;2021-12-18 13:53:47:050
-1.0549;-13.911;2.2181;-9.7923;0.34;0.4453;0.5259;-2.9091;3.9323;-30.76;186.13;80.07;18.0;-3.24;43.61;-11.7;342.8;-30.1;109.21;0.0;;;;NaN;;;;0 / 0;67972;2021-12-18 13:53:47:050
-1.0549;-13.911;2.2181;-9.7923;0.34;0.4453;0.5259;-2.9091;3.9323;-30.76;186.13;80.07;18.0;-3.24;43.61;-11.7;342.8;-30.1;109.21;0.0;;;;NaN;;;;0 / 0;67973;2021-12-18 13:53:47:051
-1.0549;-13.911;2.2181;-9.7923;0.34;0.4453;0.5259;-2.9091;3.9323;-30.76;186.13;80.07;18.0;-3.24;43.61;-11.7;342.8;-30.1;109.21;0.0;;;;NaN;;;;0 / 0;67973;2021-12-18 13:53:47:051
-1.0549;-13.911;2.2181;-9.7923;0.34;0.4453;0.5259;-2.9091;3.9323;-30.76;186.13;80.07;18.0;-3.24;43.61;-11.7;342.8;-30.1;109.21;0.0;;;;NaN;;;;0 / 0;67973;2021-12-18 13:53:47:051
-1.0549;-13.911;2.2181;-9.7923;0.34;0.4453;0.5259;-2.9091;3.9323;-30.76;186.13;80.07;18.0;-3.24;43.61;-11.7;342.8;-30.1;109.21;0.0;;;;NaN;;;;0 / 0;67973;2021-12-18 13:53:47:051
-1.0549;-13.911;2.2181;-9.7923;0.34;0.4453;0.5259;-2.9091;3.9323;-30.76;186.13;80.07;18.0;-3.24;43.61;-11.7;342.8;-30.1;109.21;0.0;;;;NaN;;;;0 / 0;67974;2021-12-18 13:53:47:052
-1.0549;-13.911;2.2181;-9.7923;0.34;0.4453;0.5259;-2.9091;3.9323;-30.76;186.13;80.07;18.0;-3.24;43.61;-11.7;342.8;-30.1;109.21;0.0;;;;NaN;;;;0 / 0;67974;2021-12-18 13:53:47:052
-1.0549;-13.911;2.2181;-9.7923;0.34;0.4453;0.5259;-2.9091;3.9323;-30.76;186.13;80.07;18.0;-3.24;43.61;-11.7;342.8;-30.1;109.21;0.0;;;;NaN;;;;0 / 0;67975;2021-12-18 13:53:47:053
-1.0549;-13.911;2.2181;-9.7923;0.34;0.4453;0.5259;-2.9091;3.9323;-30.76;186.13;80.07;18.0;-3.24;43.61;-11.7;342.8;-30.1;109.21;0.0;;;;NaN;;;;0 / 0;67975;2021-12-18 13:53:47:053
-1.0549;-13.911;2.2181;-9.7923;0.34;0.4453;0.5259;-2.9091;3.9323;-30.76;186.13;80.07;18.0;-3.24;43.61;-11.7;342.8;-30.1;109.21;0.0;;;;NaN;;;;0 / 0;67975;2021-12-18 13:53:47:053
-1.0549;-13.911;2.2181;-9.7923;0.34;0.4453;0.5259;-2.9091;3.9323;-30.76;186.13;80.07;18.0;-3.24;43.61;-11.7;342.8;-30.1;109.21;0.0;;;;NaN;;;;0 / 0;67976;2021-12-18 13:53:47:054
-1.0549;-13.911;2.2181;-9.7923;0.34;0.4453;0.5259;-2.9091;3.9323;-30.76;186.13;80.07;18.0;-3.24;43.61;-11.7;342.8;-30.1;109.21;0.0;;;;NaN;;;;0 / 0;67976;2021-12-18 13:53:47:054
-1.0549;-13.911;2.2181;-9.7923;0.34;0.4453;0.5259;-2.9091;3.9323;-30.76;186.13;80.07;18.0;-3.24;43.61;-11.7;342.8;-30.1;109.21;0.0;;;;NaN;;;;0 / 0;67976;2021-12-18 13:53:47:054
-1.0549;-13.911;2.2181;-9.7923;0.34;0.4453;0.5259;-2.9091;3.9323;-30.76;186.13;80.07;18.0;-3.24;43.61;-11.7;342.8;-30.1;109.21;0.0;;;;NaN;;;;0 / 0;67977;2021-12-18 13:53:47:055
-1.0549;-13.911;2.2181;-9.7923;0.34;0.4453;0.5259;-2.9091;3.9323;-30.76;186.13;80.07;18.0;-3.24;43.61;-11.7;342.8;-30.1;109.21;0.0;;;;NaN;;;;0 / 0;67977;2021-12-18 13:53:47:055
-1.0549;-13.911;2.2181;-9.7923;0.34;0.4453;0.5259;-2.9091;3.9323;-30.76;186.13;80.07;0.0;-3.24;43.61;-11.7;342.8;-30.1;109.21;0.0;;;;NaN;;;;0 / 0;67982;2021-12-18 13:53:47:060
-1.0549;-13.911;2.2181;-9.7923;0.34;0.4453;0.5259;-2.9091;3.9323;-30.76;186.13;80.07;0.0;-3.24;43.61;-11.7;342.8;-30.1;109.21;0.0;;;;NaN;;;;0 / 0;67983;2021-12-18 13:53:47:061
-1.0549;-13.911;2.2181;-9.7923;0.34;0.4453;0.5259;-2.9091;3.9323;-30.76;186.13;80.07;0.0;-3.24;43.61;-11.7;342.8;-30.1;109.21;0.0;;;;NaN;;;;0 / 0;67983;2021-12-18 13:53:47:061
-1.0549;-13.911;2.2181;-9.7923;0.34;0.4453;0.5259;-2.9091;3.9323;-30.76;186.13;80.07;0.0;-3.24;43.61;-11.7;342.8;-30.1;109.21;0.0;;;;NaN;;;;0 / 0;67984;2021-12-18 13:53:47:062
-1.0549;-13.911;2.2181;-9.7923;0.34;0.4453;0.5259;-2.9091;3.9323;-30.76;186.13;80.07;0.0;-3.24;43.61;-11.7;342.8;-30.1;109.21;0.0;;;;NaN;;;;0 / 0;67984;2021-12-18 13:53:47:062
-1.0549;-13.911;2.2181;-9.7923;0.34;0.4453;0.5259;-2.9091;3.9323;-30.76;186.13;80.07;0.0;-3.24;43.61;-11.7;342.8;-30.1;109.21;0.0;;;;NaN;;;;0 / 0;67985;2021-12-18 13:53:47:063
-1.0549;-13.911;2.2181;-9.7923;0.34;0.4453;0.5259;-2.9091;3.9323;-30.76;186.13;80.07;0.0;-3.24;43.61;-11.7;342.8;-30.1;109.21;0.0;;;;NaN;;;;0 / 0;67985;2021-12-18 13:53:47:063
-1.0549;-13.911;2.2181;-9.7923;0.34;0.4453;0.5259;-2.9091;3.9323;-30.76;186.13;80.07;0.0;-3.24;43.61;-11.7;342.8;-30.1;109.21;0.0;;;;NaN;;;;0 / 0;67986;2021-12-18 13:53:47:064
-2.8669;-8.322;0.773;-7.9009;5.1667;-2.6576;0.4352;-3.3743;2.1759;102.38;105.8;-70.41;0.0;-4.31;42.3;-24.49;29.57;-4.73;70.33;0.0;;;;NaN;;;;0 / 0;68080;2021-12-18 13:53:47:158
-3.719;-6.874;0.129;-8.2504;5.0853;1.5083;1.6774;-1.539;-0.6478;47.47;-76.82;79.56;9.0;-1.09;38.7;-28.86;32.07;-30.43;59.43;0.0;;;;NaN;;;;0 / 0;68581;2021-12-18 13:53:47:659
-1.5341;-10.1561;4.133;-9.4092;1.494;2.332;-1.7437;-2.0185;-6.2177;-1.43;-70.05;20.68;0.0;-0.6;42.79;-22.99;23.5;-8.53;54.48;0.0;;;;NaN;;;;0 / 0;69081;2021-12-18 13:53:48:159
-8.164;-11.111;5.627;-7.3167;5.3774;3.7062;2.6881;4.469;-2.2371;14.23;12.76;14.93;9.0;0.19;37.31;-30.9;40.95;-3.69;94.66;0.0;;;;NaN;;;;0 / 0;69582;2021-12-18 13:53:48:660
-6.0431;-12.614;6.3071;-6.5553;7.0485;1.8627;2.4074;2.5485;1.2729;-56.12;7.26;8.53;0.0;-1.99;45.11;-17.89;23.88;-23.51;100.24;0.0;;;;NaN;;;;0 / 0;70080;2021-12-18 13:53:49:158
-1.424;-14.244;-0.294;-9.6247;1.8483;-0.3448;-1.4622;3.888;-0.806;10.67;69.07;-33.42;0.0;-0.6;38.29;-30.24;37.71;-20.1;99.55;0.0;;;;NaN;;;;0 / 0;70581;2021-12-18 13:53:49:659
-4.191;-15.419;-11.1079;-9.0309;3.7445;-0.7709;1.5178;-0.6029;3.2031;-70.38;6.14;7.7;0.0;-3.9;45.41;-17.46;21.59;-19.09;111.74;0.0;;;;NaN;;;;0 / 0;71081;2021-12-18 13:53:50:159
-0.66;-10.8859;1.2821;-9.7013;1.4317;-0.2059;-1.0028;-0.739;0.986;-19.37;109.41;-16.47;0.0;-2.34;38.64;-28.74;37.16;-8.39;91.22;0.0;;;;NaN;;;;0 / 0;71580;2021-12-18 13:53:50:658
-1.472;-6.5171;0.191;-9.5624;2.1596;0.2777;-0.1998;-3.0319;-0.3129;13.94;-16.24;37.08;9.0;-1.91;43.09;-21.36;23.04;9.1;49.37;0.0;;;;NaN;;;;0 / 0;72082;2021-12-18 13:53:51:160
-1.8859;-12.676;5.474;-9.5624;1.5227;1.5802;-1.2557;3.4411;-6.5684;4.77;-124.92;25.01;0.0;-1.5;44.94;-18.24;21.82;-8.93;80.62;0.0;;;;NaN;;;;0 / 0;72722;2021-12-18 13:53:51:800
-1.8859;-12.676;5.474;-9.5624;1.5227;1.5802;-1.2557;3.4411;-6.5684;4.77;-124.92;25.01;0.0;-1.5;44.94;-18.24;21.82;-8.93;80.62;0.0;;;;NaN;;;;0 / 0;72723;2021-12-18 13:53:51:801
-1.8859;-12.676;5.474;-9.5624;1.5227;1.5802;-1.2557;3.4411;-6.5684;4.77;-124.92;25.01;0.0;-1.5;44.94;-18.24;21.82;-8.93;80.62;0.0;;;;NaN;;;;0 / 0;72724;2021-12-18 13:53:51:802
-1.8859;-12.676;5.474;-9.5624;1.5227;1.5802;-1.2557;3.4411;-6.5684;4.77;-124.92;25.01;0.0;-1.5;44.94;-18.24;21.82;-8.93;80.62;0.0;;;;NaN;;;;0 / 0;72724;2021-12-18 13:53:51:802
-1.8859;-12.676;5.474;-9.5624;1.5227;1.5802;-1.2557;3.4411;-6.5684;4.77;-124.92;25.01;0.0;-1.5;44.94;-18.24;21.82;-8.93;80.62;0.0;;;;NaN;;;;0 / 0;72725;2021-12-18 13:53:51:803
-1.8859;-12.676;5.474;-9.5624;1.5227;1.5802;-1.2557;3.4411;-6.5684;4.77;-124.92;25.01;0.0;-1.5;44.94;-18.24;21.82;-8.93;80.62;0.0;;;;NaN;;;;0 / 0;72725;2021-12-18 13:53:51:803
-1.8859;-12.676;5.474;-9.5624;1.5227;1.5802;-1.2557;3.4411;-6.5684;4.77;-124.92;25.01;0.0;-1.5;44.94;-18.24;21.82;-8.93;80.62;0.0;;;;NaN;;;;0 / 0;72726;2021-12-18 13:53:51:804
-1.8859;-12.676;5.474;-9.5624;1.5227;1.5802;-1.2557;3.4411;-6.5684;4.77;-124.92;25.01;0.0;-1.5;44.94;-18.24;21.82;-8.93;80.62;0.0;;;;NaN;;;;0 / 0;72726;2021-12-18 13:53:51:804
-1.8859;-12.676;5.474;-9.5624;1.5227;1.5802;-1.2557;3.4411;-6.5684;4.77;-124.92;25.01;0.0;-1.5;44.94;-18.24;21.82;-8.93;80.62;0.0;;;;NaN;;;;0 / 0;72726;2021-12-18 13:53:51:804
-1.029;-10.316;0.4811;-9.7492;0.9673;0.4501;-1.7911;0.9161;-0.4176;12.15;62.23;-14.36;40.0;-0.24;33.6;-25.5;38.0;-12.26;89.46;0.0;;;;NaN;;;;0 / 0;72913;2021-12-18 13:53:51:991
-4.4111;-7.075;-3.36;-9.2177;1.2258;3.1268;0.8006;-3.6971;3.0617;-18.14;122.1;-85.09;118.0;-1.91;36.6;-20.4;27.71;-7.18;71.26;0.0;;;;NaN;;;;0 / 0;73413;2021-12-18 13:53:52:491
-0.868;-5.7131;-1.701;-9.3087;1.3982;-2.7533;-2.4691;-3.1661;2.2042;47.54;-163.02;23.97;3.0;-4.39;34.01;-28.09;38.81;-8.2;106.48;0.0;;;;NaN;;;;0 / 0;73916;2021-12-18 13:53:52:994
0.672;-6.302;0.6101;-8.576;-2.715;-3.9073;-5.9;-2.3703;4.2312;19.22;-78.7;55.96;46.0;-3.24;36.79;-29.4;38.16;-35.38;65.11;0.0;;;;NaN;;;;0 / 0;74413;2021-12-18 13:53:53:491
-3.109;-7.9031;0.1571;-7.671;4.9656;-3.5578;-0.2112;-1.3111;0.4245;53.98;-40.86;-29.32;0.0;-10.39;39.24;-30.79;40.97;-12.38;79.54;0.0;;;;NaN;;;;0 / 0;74913;2021-12-18 13:53:53:991
-3.252;-7.044;-0.112;-9.0309;3.5769;1.3647;-0.2514;-1.621;0.015;46.18;-106.42;85.51;3.0;-6.3;39.24;-27.66;44.87;-28.01;76.73;0.0;;;;NaN;;;;0 / 0;75413;2021-12-18 13:53:54:491
-2.891;-11.604;4.5281;-9.6726;1.5897;0.2873;-0.5162;2.4268;-5.2988;1.95;-99.78;30.06;0.0;-4.69;44.94;-17.16;22.22;-23.29;62.97;0.0;;;;NaN;;;;0 / 0;75914;2021-12-18 13:53:54:992
-7.367;-9.734;5.8451;-7.8913;4.8698;3.1891;3.2433;-1.1461;-3.5994;1.69;100.77;-31.5;0.0;0.19;36.41;-29.16;36.27;-29.78;68.0;0.0;;;;NaN;;;;0 / 0;76413;2021-12-18 13:53:55:491
1.1771;-7.477;-6.256;-7.4651;-1.1732;-6.2537;-1.9176;-2.0608;3.0942;30.72;-121.91;92.28;23.0;0.06;39.84;-25.14;24.72;6.87;129.95;0.0;;;;NaN;;;;0 / 0;76913;2021-12-18 13:53:55:991
-2.135;-13.4689;-2.1589;-9.5672;1.5131;-1.5323;-1.9176;-2.0608;3.0942;30.72;-121.91;92.28;23.0;0.06;39.84;-25.14;24.72;6.87;129.95;0.0;;;;NaN;;;;0 / 0;76956;2021-12-18 13:53:56:034
-4.691;-17.078;-5.4431;-8.6526;3.9313;-2.4181;1.6898;-0.5438;2.1477;-32.05;-12.27;16.55;12.0;1.91;42.41;-21.06;29.31;-23.63;105.61;0.0;;;;NaN;;;;0 / 0;77456;2021-12-18 13:53:56:534
-1.409;-12.2051;0.359;-9.2225;3.3375;-0.2394;-0.661;-2.477;0.5594;-29.74;50.99;15.51;0.0;0.49;38.04;-28.39;33.56;-18.77;74.59;0.0;;;;NaN;;;;0 / 0;77956;2021-12-18 13:53:57:034
-3.614;-7.5559;-2.599;-8.4515;4.0414;-2.897;1.1075;-2.3372;0.8477;-7.25;18.5;4.12;0.0;0.0;41.21;-24.19;40.04;-6.0;94.17;0.0;;;;NaN;;;;0 / 0;78456;2021-12-18 13:53:57:534
-3.614;-7.5559;-2.599;-8.4515;4.0414;-2.897;1.1075;-2.3372;0.8477;-7.25;18.5;4.12;0.0;0.0;41.21;-24.19;40.04;-6.0;94.17;0.0;;;;NaN;;;;0 / 0;78457;2021-12-18 13:53:57:535
-3.614;-7.5559;-2.599;-8.4515;4.0414;-2.897;1.1075;-2.3372;0.8477;-7.25;18.5;4.12;0.0;0.0;41.21;-24.19;40.04;-6.0;94.17;0.0;;;;NaN;;;;0 / 0;78458;2021-12-18 13:53:57:536
-3.614;-7.5559;-2.599;-8.4515;4.0414;-2.897;1.1075;-2.3372;0.8477;-7.25;18.5;4.12;0.0;0.0;41.21;-24.19;40.04;-6.0;94.17;0.0;;;;NaN;;;;0 / 0;78459;2021-12-18 13:53:57:537
-3.614;-7.5559;-2.599;-8.4515;4.0414;-2.897;1.1075;-2.3372;0.8477;-7.25;18.5;4.12;0.0;0.0;41.21;-24.19;40.04;-6.0;94.17;0.0;;;;NaN;;;;0 / 0;78459;2021-12-18 13:53:57:537
-3.614;-7.5559;-2.599;-8.4515;4.0414;-2.897;1.1075;-2.3372;0.8477;-7.25;18.5;4.12;0.0;0.0;41.21;-24.19;40.04;-6.0;94.17;0.0;;;;NaN;;;;0 / 0;78460;2021-12-18 13:53:57:538
-3.614;-7.5559;-2.599;-8.4515;4.0414;-2.897;1.1075;-2.3372;0.8477;-7.25;18.5;4.12;0.0;0.0;41.21;-24.19;40.04;-6.0;94.17;0.0;;;;NaN;;;;0 / 0;78460;2021-12-18 13:53:57:538
-3.614;-7.5559;-2.599;-8.4515;4.0414;-2.897;1.1075;-2.3372;0.8477;-7.25;18.5;4.12;0.0;0.0;41.21;-24.19;40.04;-6.0;94.17;0.0;;;;NaN;;;;0 / 0;78461;2021-12-18 13:53:57:539
-3.614;-7.5559;-2.599;-8.4515;4.0414;-2.897;1.1075;-2.3372;0.8477;-7.25;18.5;4.12;0.0;0.0;41.21;-24.19;40.04;-6.0;94.17;0.0;;;;NaN;;;;0 / 0;78461;2021-12-18 13:53:57:539
-3.614;-7.5559;-2.599;-8.4515;4.0414;-2.897;1.1075;-2.3372;0.8477;-7.25;18.5;4.12;0.0;0.0;41.21;-24.19;40.04;-6.0;94.17;0.0;;;;NaN;;;;0 / 0;78461;2021-12-18 13:53:57:539
-3.614;-7.5559;-2.599;-8.4515;4.0414;-2.897;1.1075;-2.3372;0.8477;-7.25;18.5;4.12;0.0;0.0;41.21;-24.19;40.04;-6.0;94.17;0.0;;;;NaN;;;;0 / 0;78462;2021-12-18 13:53:57:540
-3.614;-7.5559;-2.599;-8.4515;4.0414;-2.897;1.1075;-2.3372;0.8477;-7.25;18.5;4.12;0.0;0.0;41.21;-24.19;40.04;-6.0;94.17;0.0;;;;NaN;;;;0 / 0;78462;2021-12-18 13:53:57:540
-3.614;-7.5559;-2.599;-8.4515;4.0414;-2.897;1.1075;-2.3372;0.8477;-7.25;18.5;4.12;0.0;0.0;41.21;-24.19;40.04;-6.0;94.17;0.0;;;;NaN;;;;0 / 0;78463;2021-12-18 13:53:57:541
-3.614;-7.5559;-2.599;-8.4515;4.0414;-2.897;1.1075;-2.3372;0.8477;-7.25;18.5;4.12;0.0;0.0;41.21;-24.19;40.04;-6.0;94.17;0.0;;;;NaN;;;;0 / 0;78463;2021-12-18 13:53:57:541
-3.614;-7.5559;-2.599;-8.4515;4.0414;-2.897;1.1075;-2.3372;0.8477;-7.25;18.5;4.12;0.0;0.0;41.21;-24.19;40.04;-6.0;94.17;0.0;;;;NaN;;;;0 / 0;78464;2021-12-18 13:53:57:542
-3.614;-7.5559;-2.599;-8.4515;4.0414;-2.897;1.1075;-2.3372;0.8477;-7.25;18.5;4.12;0.0;0.0;41.21;-24.19;40.04;-6.0;94.17;0.0;;;;NaN;;;;0 / 0;78464;2021-12-18 13:53:57:542
-3.614;-7.5559;-2.599;-8.4515;4.0414;-2.897;1.1075;-2.3372;0.8477;-7.25;18.5;4.12;0.0;0.0;41.21;-24.19;40.04;-6.0;94.17;0.0;;;;NaN;;;;0 / 0;78464;2021-12-18 13:53:57:542
-3.614;-7.5559;-2.599;-8.4515;4.0414;-2.897;1.1075;-2.3372;0.8477;-7.25;18.5;4.12;0.0;0.0;41.21;-24.19;40.04;-6.0;94.17;0.0;;;;NaN;;;;0 / 0;78465;2021-12-18 13:53:57:543
-7.2469;-16.269;6.594;-8.3989;3.7445;3.4046;-2.5011;-2.5451;4.8412;-58.31;5.11;-8.73;0.0;-3.3;44.51;-18.06;14.38;0.67;131.14;0.0;;;;NaN;;;;0 / 0;78617;2021-12-18 13:53:57:695
0.4541;-14.835;-1.833;-9.73;-0.2969;-1.1971;-0.9287;4.1543;2.2342;-0.18;93.48;-51.11;0.0;-2.64;37.01;-30.06;39.61;-8.99;97.56;0.0;;;;NaN;;;;0 / 0;79116;2021-12-18 13:53:58:194
-5.44;-12.537;-3.5831;-8.7771;2.6959;-3.4476;0.1791;-2.2612;3.3277;-31.65;21.4;-13.79;0.0;-3.0;43.31;-20.76;25.62;-15.95;111.44;0.0;;;;NaN;;;;0 / 0;79944;2021-12-18 13:53:59:022
-5.44;-12.537;-3.5831;-8.7771;2.6959;-3.4476;0.1791;-2.2612;3.3277;-31.65;21.4;-13.79;0.0;-3.24;43.31;-20.7;25.62;-15.95;111.44;0.0;;;;NaN;;;;0 / 0;79945;2021-12-18 13:53:59:023
-2.711;-6.7181;-1.979;-8.7771;3.5434;-2.5809;-0.0272;-3.2561;-0.1687;27.66;0.12;-24.64;0.0;-2.1;43.01;-20.34;29.71;-10.29;99.28;0.0;;;;NaN;;;;0 / 0;80168;2021-12-18 13:53:59:246
-1.122;-7.018;-1.737;-9.596;2.0207;0.0479;-1.954;-2.269;2.4766;4.19;58.5;4.17;0.0;-3.79;38.89;-26.1;36.42;-22.9;82.84;0.0;;;;NaN;;;;0 / 0;80668;2021-12-18 13:53:59:746
1.1051;-8.32;-3.851;-8.2935;-1.2163;5.0853;-4.5104;-1.4301;7.2438;9.8;-73.89;47.3;6.0;-1.91;39.54;-24.3;31.41;-23.84;66.03;0.0;;;;NaN;;;;0 / 0;81168;2021-12-18 13:54:00:246
-2.81;-6.156;-0.354;-9.1698;1.4653;3.1556;-0.8052;-2.2709;-1.13;41.01;-139.76;-12.66;0.0;-3.19;42.41;-21.36;26.83;-2.57;83.74;0.0;;;;NaN;;;;0 / 0;81668;2021-12-18 13:54:00:746
-5.5;-7.0609;1.3301;-8.667;4.5729;-0.4501;0.4009;-2.4066;1.3614;12.5;-83.56;94.14;5.0;-0.6;38.94;-27.24;38.87;-27.79;92.97;0.0;;;;NaN;;;;0 / 0;82169;2021-12-18 13:54:01:247
-2.0051;-13.816;-0.4729;-9.7013;1.4078;-0.3256;-2.1233;5.2734;-2.3836;-5.29;-146.86;49.79;0.0;-2.1;43.44;-19.5;20.63;-19.66;53.54;0.0;;;;NaN;;;;0 / 0;82669;2021-12-18 13:54:01:747
-4.71;-8.3719;1.656;-9.0932;3.5051;1.1061;2.447;2.5891;-1.1779;-0.51;66.67;-14.91;3.0;0.41;35.51;-30.54;41.77;-5.74;92.9;0.0;;;;NaN;;;;0 / 0;83169;2021-12-18 13:54:02:247
-4.0691;-5.347;-0.2681;-7.8003;5.928;-0.3783;4.7964;6.4975;-7.8369;-28.44;-1.8;1.11;6.0;-1.61;43.39;-18.96;27.41;-23.72;102.57;0.0;;;;NaN;;;;0 / 0;83670;2021-12-18 13:54:02:748
-1.749;-14.3179;-2.0081;-9.7683;0.4693;-0.7614;-1.5628;5.3455;0.8595;25.54;76.14;-43.41;0.0;1.01;35.1;-30.3;40.67;-2.74;94.46;0.0;;;;NaN;;;;0 / 0;84169;2021-12-18 13:54:03:247
-1.29;-11.0869;-6.809;-9.0644;2.5762;-2.7246;2.057;6.5211;4.6177;3.99;-30.43;-3.11;12.0;-1.01;42.9;-17.76;23.03;-15.23;106.73;0.0;;;;NaN;;;;0 / 0;84668;2021-12-18 13:54:03:746
-0.6461;-10.558;-0.6581;-9.7875;0.4597;-0.4597;-1.4714;-0.9767;-1.148;7.25;34.07;-7.61;0.0;-4.01;39.11;-25.69;35.09;-13.7;87.38;0.0;;;;NaN;;;;0 / 0;85169;2021-12-18 13:54:04:247
-5.143;-7.6661;2.723;-6.9671;5.5641;4.0893;6.0535;0.8496;-5.813;19.7;-10.19;22.61;13.0;-1.8;36.6;-28.39;38.69;-26.72;78.24;0.0;;;;NaN;;;;0 / 0;85759;2021-12-18 13:54:04:837
-5.143;-7.6661;2.723;-6.9671;5.5641;4.0893;6.0535;0.8496;-5.813;19.7;-10.19;22.61;13.0;-1.8;36.6;-28.39;38.69;-26.72;78.24;0.0;;;;NaN;;;;0 / 0;85760;2021-12-18 13:54:04:838
0.983;-7.5611;-0.9401;-8.3175;-1.0199;5.0901;-5.1074;-1.2466;2.2034;-27.0;81.15;-46.8;13.0;-4.74;39.54;-23.29;29.69;5.97;58.53;0.0;;;;NaN;;;;0 / 0;85856;2021-12-18 13:54:04:934
-2.3;-5.3209;-2.642;-9.232;2.8299;1.7286;-1.2787;0.2124;-3.6044;51.54;-108.77;-21.68;0.0;-5.94;40.8;-25.5;34.4;-16.77;79.39;0.0;;;;NaN;;;;0 / 0;86356;2021-12-18 13:54:05:434
-3.0079;-8.1979;2.6561;-7.4651;4.6543;4.3335;-0.1071;-1.8352;0.3783;13.72;68.53;-33.36;0.0;-2.21;36.79;-30.66;44.12;-17.36;82.92;0.0;;;;NaN;;;;0 / 0;86857;2021-12-18 13:54:05:935
-3.951;-9.227;-3.6791;-8.4659;3.6248;-3.3758;1.7034;-0.3229;3.8716;-53.57;107.32;-61.73;18.0;-4.8;44.51;-20.1;24.12;-21.69;111.74;0.0;;;;NaN;;;;0 / 0;87426;2021-12-18 13:54:06:504
-3.951;-9.227;-3.6791;-8.4659;3.6248;-3.3758;1.7034;-0.3229;3.8716;-53.57;107.32;-61.73;18.0;-4.8;44.51;-20.1;24.12;-21.69;111.74;0.0;;;;NaN;;;;0 / 0;87427;2021-12-18 13:54:06:505
-3.951;-9.227;-3.6791;-8.4659;3.6248;-3.3758;1.7034;-0.3229;3.8716;-53.57;107.32;-61.73;18.0;-4.8;44.51;-20.1;24.12;-21.69;111.74;0.0;;;;NaN;;;;0 / 0;87428;2021-12-18 13:54:06:506
-3.951;-9.227;-3.6791;-8.4659;3.6248;-3.3758;1.7034;-0.3229;3.8716;-53.57;107.32;-61.73;18.0;-4.8;44.51;-20.1;24.12;-21.69;111.74;0.0;;;;NaN;;;;0 / 0;87428;2021-12-18 13:54:06:506
-3.951;-9.227;-3.6791;-8.4659;3.6248;-3.3758;1.7034;-0.3229;3.8716;-53.57;107.32;-61.73;18.0;-4.8;44.51;-20.1;24.12;-21.69;111.74;0.0;;;;NaN;;;;0 / 0;87429;2021-12-18 13:54:06:507
-3.951;-9.227;-3.6791;-8.4659;3.6248;-3.3758;1.7034;-0.3229;3.8716;-53.57;107.32;-61.73;18.0;-4.8;44.51;-20.1;24.12;-21.69;111.74;0.0;;;;NaN;;;;0 / 0;87429;2021-12-18 13:54:06:507
-3.951;-9.227;-3.6791;-8.4659;3.6248;-3.3758;1.7034;-0.3229;3.8716;-53.57;107.32;-61.73;18.0;-4.8;44.51;-20.1;24.12;-21.69;111.74;0.0;;;;NaN;;;;0 / 0;87430;2021-12-18 13:54:06:508
-3.951;-9.227;-3.6791;-8.4659;3.6248;-3.3758;1.7034;-0.3229;3.8716;-53.57;107.32;-61.73;18.0;-4.8;44.51;-20.1;24.12;-21.69;111.74;0.0;;;;NaN;;;;0 / 0;87431;2021-12-18 13:54:06:509
-3.951;-9.227;-3.6791;-8.4659;3.6248;-3.3758;1.7034;-0.3229;3.8716;-53.57;107.32;-61.73;18.0;-4.8;44.51;-20.1;24.12;-21.69;111.74;0.0;;;;NaN;;;;0 / 0;87432;2021-12-18 13:54:06:510
-3.951;-9.227;-3.6791;-8.4659;3.6248;-3.3758;1.7034;-0.3229;3.8716;-53.57;107.32;-61.73;18.0;-4.8;44.51;-20.1;24.12;-21.69;111.74;0.0;;;;NaN;;;;0 / 0;87432;2021-12-18 13:54:06:510
-3.951;-9.227;-3.6791;-8.4659;3.6248;-3.3758;1.7034;-0.3229;3.8716;-53.57;107.32;-61.73;18.0;-4.8;44.51;-20.1;24.12;-21.69;111.74;0.0;;;;NaN;;;;0 / 0;87433;2021-12-18 13:54:06:511
-3.951;-9.227;-3.6791;-8.4659;3.6248;-3.3758;1.7034;-0.3229;3.8716;-53.57;107.32;-61.73;18.0;-4.8;44.51;-20.1;24.12;-21.69;111.74;0.0;;;;NaN;;;;0 / 0;87433;2021-12-18 13:54:06:511
-3.951;-9.227;-3.6791;-8.4659;3.6248;-3.3758;1.7034;-0.3229;3.8716;-53.57;107.32;-61.73;18.0;-4.8;44.51;-20.1;24.12;-21.69;111.74;0.0;;;;NaN;;;;0 / 0;87433;2021-12-18 13:54:06:511
-3.951;-9.227;-3.6791;-8.4659;3.6248;-3.3758;1.7034;-0.3229;3.8716;-53.57;107.32;-61.73;18.0;-4.8;44.51;-20.1;24.12;-21.69;111.74;0.0;;;;NaN;;;;0 / 0;87434;2021-12-18 13:54:06:512
-3.951;-9.227;-3.6791;-8.4659;3.6248;-3.3758;1.7034;-0.3229;3.8716;-53.57;107.32;-61.73;18.0;-4.8;44.51;-20.1;24.12;-21.69;111.74;0.0;;;;NaN;;;;0 / 0;87434;2021-12-18 13:54:06:512
-3.951;-9.227;-3.6791;-8.4659;3.6248;-3.3758;1.7034;-0.3229;3.8716;-53.57;107.32;-61.73;18.0;-4.8;44.51;-20.1;24.12;-21.69;111.74;0.0;;;;NaN;;;;0 / 0;87435;2021-12-18 13:54:06:513
-3.951;-9.227;-3.6791;-8.4659;3.6248;-3.3758;1.7034;-0.3229;3.8716;-53.57;107.32;-61.73;18.0;-4.8;44.51;-20.1;24.12;-21.69;111.74;0.0;;;;NaN;;;;0 / 0;87438;2021-12-18 13:54:06:516
-3.951;-9.227;-3.6791;-8.4659;3.6248;-3.3758;1.7034;-0.3229;3.8716;-53.57;107.32;-61.73;18.0;-4.8;44.51;-20.1;24.12;-21.69;111.74;0.0;;;;NaN;;;;0 / 0;87438;2021-12-18 13:54:06:516
-3.951;-9.227;-3.6791;-8.4659;3.6248;-3.3758;1.7034;-0.3229;3.8716;-53.57;107.32;-61.73;18.0;-4.8;44.51;-20.1;24.12;-21.69;111.74;0.0;;;;NaN;;;;0 / 0;87439;2021-12-18 13:54:06:517
-3.951;-9.227;-3.6791;-8.4659;3.6248;-3.3758;1.7034;-0.3229;3.8716;-53.57;107.32;-61.73;18.0;-4.8;44.51;-20.1;24.12;-21.69;111.74;0.0;;;;NaN;;;;0 / 0;87440;2021-12-18 13:54:06:518
-3.951;-9.227;-3.6791;-8.4659;3.6248;-3.3758;1.7034;-0.3229;3.8716;-53.57;107.32;-61.73;18.0;-4.8;44.51;-20.1;24.12;-21.69;111.74;0.0;;;;NaN;;;;0 / 0;87440;2021-12-18 13:54:06:518
-3.951;-9.227;-3.6791;-8.4659;3.6248;-3.3758;1.7034;-0.3229;3.8716;-53.57;107.32;-61.73;18.0;-4.8;44.51;-20.1;24.12;-21.69;111.74;0.0;;;;NaN;;;;0 / 0;87441;2021-12-18 13:54:06:519
-3.951;-9.227;-3.6791;-8.4659;3.6248;-3.3758;1.7034;-0.3229;3.8716;-53.57;107.32;-61.73;18.0;-4.8;44.51;-20.1;24.12;-21.69;111.74;0.0;;;;NaN;;;;0 / 0;87441;2021-12-18 13:54:06:519
-3.951;-9.227;-3.6791;-8.4659;3.6248;-3.3758;1.7034;-0.3229;3.8716;-53.57;107.32;-61.73;18.0;-4.8;44.51;-20.1;24.12;-21.69;111.74;0.0;;;;NaN;;;;0 / 0;87442;2021-12-18 13:54:06:520
-4.5709;-16.867;-2.333;-5.3295;-2.5283;7.8338;2.5803;3.8282;2.2053;-2.1;-0.95;0.84;18.0;-4.8;44.51;-20.1;24.12;-21.69;111.74;0.0;;;;NaN;;;;0 / 0;87457;2021-12-18 13:54:06:535
-4.5709;-16.867;-2.333;-5.3295;-2.5283;7.8338;2.5803;3.8282;2.2053;-2.1;-0.95;0.84;18.0;-4.8;44.51;-20.1;24.12;-21.69;111.74;0.0;;;;NaN;;;;0 / 0;87457;2021-12-18 13:54:06:535
-4.5709;-16.867;-2.333;-5.3295;-2.5283;7.8338;2.5803;3.8282;2.2053;-2.1;-0.95;0.84;18.0;-4.8;44.51;-20.1;24.12;-21.69;111.74;0.0;;;;NaN;;;;0 / 0;87458;2021-12-18 13:54:06:536
-4.5709;-16.867;-2.333;-5.3295;-2.5283;7.8338;2.5803;3.8282;2.2053;-2.1;-0.95;0.84;18.0;-4.8;44.51;-20.1;24.12;-21.69;111.74;0.0;;;;NaN;;;;0 / 0;87458;2021-12-18 13:54:06:536
-4.5709;-16.867;-2.333;-5.3295;-2.5283;7.8338;2.5803;3.8282;2.2053;-2.1;-0.95;0.84;18.0;-4.8;44.51;-20.1;24.12;-21.69;111.74;0.0;;;;NaN;;;;0 / 0;87459;2021-12-18 13:54:06:537
-4.5709;-16.867;-2.333;-5.3295;-2.5283;7.8338;2.5803;3.8282;2.2053;-2.1;-0.95;0.84;18.0;-4.8;44.51;-20.1;24.12;-21.69;111.74;0.0;;;;NaN;;;;0 / 0;87459;2021-12-18 13:54:06:537
-4.5709;-16.867;-2.333;-5.3295;-2.5283;7.8338;2.5803;3.8282;2.2053;-2.1;-0.95;0.84;18.0;-4.8;44.51;-20.1;24.12;-21.69;111.74;0.0;;;;NaN;;;;0 / 0;87460;2021-12-18 13:54:06:538
-4.5709;-16.867;-2.333;-5.3295;-2.5283;7.8338;2.5803;3.8282;2.2053;-2.1;-0.95;0.84;18.0;-4.8;44.51;-20.1;24.12;-21.69;111.74;0.0;;;;NaN;;;;0 / 0;87460;2021-12-18 13:54:06:538
-4.5709;-16.867;-2.333;-5.3295;-2.5283;7.8338;2.5803;3.8282;2.2053;-2.1;-0.95;0.84;18.0;-4.8;44.51;-20.1;24.12;-21.69;111.74;0.0;;;;NaN;;;;0 / 0;87461;2021-12-18 13:54:06:539
-4.5709;-16.867;-2.333;-5.3295;-2.5283;7.8338;2.5803;3.8282;2.2053;-2.1;-0.95;0.84;18.0;-4.8;44.51;-20.1;24.12;-21.69;111.74;0.0;;;;NaN;;;;0 / 0;87461;2021-12-18 13:54:06:539
-4.5709;-16.867;-2.333;-5.3295;-2.5283;7.8338;2.5803;3.8282;2.2053;-2.1;-0.95;0.84;18.0;-4.8;44.51;-20.1;24.12;-21.69;111.74;0.0;;;;NaN;;;;0 / 0;87461;2021-12-18 13:54:06:539
-4.5709;-16.867;-2.333;-5.3295;-2.5283;7.8338;2.5803;3.8282;2.2053;-2.1;-0.95;0.84;18.0;-4.8;44.51;-20.1;24.12;-21.69;111.74;0.0;;;;NaN;;;;0 / 0;87462;2021-12-18 13:54:06:540
-4.5709;-16.867;-2.333;-5.3295;-2.5283;7.8338;2.5803;3.8282;2.2053;-2.1;-0.95;0.84;18.0;-4.8;44.51;-20.1;24.12;-21.69;111.74;0.0;;;;NaN;;;;0 / 0;87462;2021-12-18 13:54:06:540
-4.5709;-16.867;-2.333;-5.3295;-2.5283;7.8338;2.5803;3.8282;2.2053;-2.1;-0.95;0.84;18.0;-4.8;44.51;-20.1;24.12;-21.69;111.74;0.0;;;;NaN;;;;0 / 0;87463;2021-12-18 13:54:06:541
-4.5709;-16.867;-2.333;-5.3295;-2.5283;7.8338;2.5803;3.8282;2.2053;-2.1;-0.95;0.84;18.0;-4.8;44.51;-20.1;24.12;-21.69;111.74;0.0;;;;NaN;;;;0 / 0;87463;2021-12-18 13:54:06:541
-4.5709;-16.867;-2.333;-5.3295;-2.5283;7.8338;2.5803;3.8282;2.2053;-2.1;-0.95;0.84;18.0;-4.8;44.51;-20.1;24.12;-21.69;111.74;0.0;;;;NaN;;;;0 / 0;87464;2021-12-18 13:54:06:542
-4.5709;-16.867;-2.333;-5.3295;-2.5283;7.8338;2.5803;3.8282;2.2053;-2.1;-0.95;0.84;18.0;-4.8;44.51;-20.1;24.12;-21.69;111.74;0.0;;;;NaN;;;;0 / 0;87464;2021-12-18 13:54:06:542
-4.5709;-16.867;-2.333;-5.3295;-2.5283;7.8338;2.5803;3.8282;2.2053;-2.1;-0.95;0.84;18.0;-4.8;44.51;-20.1;24.12;-21.69;111.74;0.0;;;;NaN;;;;0 / 0;87468;2021-12-18 13:54:06:546
-2.2519;-6.9341;-1.318;-8.758;2.6624;-3.5195;-1.1798;-3.4691;3.3435;45.54;-133.06;-37.26;0.0;-4.69;40.5;-21.19;27.06;-8.48;64.03;0.0;;;;NaN;;;;0 / 0;87968;2021-12-18 13:54:07:046
-0.7849;-5.507;0.777;-7.5322;5.7844;2.4517;-0.3782;-3.0611;-0.4603;27.07;-67.74;67.62;21.0;-7.09;38.64;-24.06;38.03;-36.14;71.97;0.0;;;;NaN;;;;0 / 0;88468;2021-12-18 13:54:07:546
-2.769;-5.131;-1.2319;-9.1219;2.9544;2.0734;-2.5205;-5.4802;-0.9753;-2.26;130.63;-121.95;18.0;-9.41;41.89;-18.6;27.95;-17.53;77.19;0.0;;;;NaN;;;;0 / 0;88968;2021-12-18 13:54:08:046
-2.769;-5.131;-1.2319;-9.1219;2.9544;2.0734;-2.5205;-5.4802;-0.9753;-2.26;130.63;-121.95;18.0;-9.41;41.89;-18.6;27.95;-17.53;77.19;0.0;;;;NaN;;;;0 / 0;88969;2021-12-18 13:54:08:047
-2.769;-5.131;-1.2319;-9.1219;2.9544;2.0734;-2.5205;-5.4802;-0.9753;-2.26;130.63;-121.95;18.0;-9.41;41.89;-18.6;27.95;-17.53;77.19;0.0;;;;NaN;;;;0 / 0;88970;2021-12-18 13:54:08:048
-2.97;-14.184;-0.533;-9.6247;1.5131;-1.0965;0.8192;5.6819;2.5727;-24.64;19.5;-24.45;18.0;-5.64;38.29;-25.8;27.95;-17.53;77.19;0.0;;;;NaN;;;;0 / 0;89089;2021-12-18 13:54:08:167
-2.697;-13.622;-9.5741;-8.5042;1.9632;-4.4676;0.8753;4.0094;8.8671;-83.46;1.11;23.11;0.0;-4.01;44.59;-20.59;21.99;-11.55;117.71;0.0;;;;NaN;;;;0 / 0;89589;2021-12-18 13:54:08:667
0.246;-9.5;0.6461;-9.7588;0.7087;-0.6512;-2.132;-1.0066;1.6861;-44.83;85.11;-2.01;0.0;-5.64;38.94;-28.69;36.57;0.9;90.0;0.0;;;;NaN;;;;0 / 0;90088;2021-12-18 13:54:09:166
-5.574;-10.0069;-0.067;-9.0022;3.6392;1.3886;2.266;-2.36;0.7006;-51.41;66.26;-33.32;184.0;-8.29;44.89;-14.64;22.0;-21.78;81.23;0.0;;;;NaN;;;;0 / 0;90588;2021-12-18 13:54:09:666
-1.8139;-7.762;-0.3109;-9.5433;2.2314;-0.3687;-2.5413;-2.4301;0.7166;-12.27;-5.78;5.13;184.0;-10.8;44.51;-14.4;21.79;-29.13;90.32;0.0;;;;NaN;;;;0 / 0;91089;2021-12-18 13:54:10:167
0.402;-4.579;3.1541;-9.4044;0.4645;2.7438;-4.3449;-2.7467;1.6237;-17.97;115.14;-70.8;174.0;-7.39;42.71;-20.46;26.26;-2.71;73.74;0.0;;;;NaN;;;;0 / 0;91587;2021-12-18 13:54:10:665
-2.434;-5.625;2.7641;-7.9535;1.8914;5.4157;-0.2769;-3.6471;-4.5263;-22.56;-14.62;12.49;0.0;-6.71;45.41;-15.9;23.03;-26.62;61.28;0.0;;;;NaN;;;;0 / 0;92313;2021-12-18 13:54:11:391
-2.434;-5.625;2.7641;-7.9535;1.8914;5.4157;-0.2769;-3.6471;-4.5263;-22.56;-14.62;12.49;0.0;-6.71;45.41;-15.9;23.03;-26.62;61.28;0.0;;;;NaN;;;;0 / 0;92314;2021-12-18 13:54:11:392
-1.285;-11.511;5.835;-8.7053;0.9673;4.4101;-2.0478;2.286;-5.9905;53.13;-145.75;1.5;27.0;-1.69;43.5;-20.04;22.84;-5.66;63.13;0.0;;;;NaN;;;;0 / 0;92656;2021-12-18 13:54:11:734
-3.2959;-15.23;1.235;-9.5577;2.059;0.7709;1.0032;5.2074;2.0584;-2.39;80.15;-23.79;106.0;-0.84;35.7;-30.6;41.1;-12.12;85.39;0.0;;;;NaN;;;;0 / 0;93155;2021-12-18 13:54:12:233
-7.35;-16.109;5.4311;-8.5329;3.8882;2.873;2.6605;3.9311;-3.2806;-75.78;2.6;11.68;95.0;-6.41;43.31;-23.59;30.22;-16.42;101.96;0.0;;;;NaN;;;;0 / 0;93658;2021-12-18 13:54:12:736
-1.086;-14.0621;-0.1;-9.8019;-0.2586;0.2442;-3.9788;1.2003;0.0727;30.23;-80.88;-6.17;0.0;-2.29;31.01;-21.49;34.15;1.51;88.57;0.0;;;;NaN;;;;0 / 0;94156;2021-12-18 13:54:13:234
-2.5871;-8.284;-2.336;-9.6917;1.4748;0.1915;-1.7446;-4.2845;-0.1205;-43.68;148.35;-88.76;86.0;5.4;37.69;-24.06;36.45;11.69;109.66;0.0;;;;NaN;;;;0 / 0;94654;2021-12-18 13:54:13:732
-0.792;-7.9699;-2.214;-9.7444;0.9146;0.6177;-2.4933;-0.8175;3.1172;1.73;15.91;10.49;0.0;7.8;32.4;-30.96;44.95;-20.13;130.19;0.0;;;;NaN;;;;0 / 0;95154;2021-12-18 13:54:14:232
-1.6301;-13.7561;-0.9589;-8.4084;2.7007;4.2665;-2.2952;-5.8995;3.1123;-1.17;6.29;-0.32;0.0;10.8;29.94;-33.06;48.21;-1.74;94.93;0.0;;;;NaN;;;;0 / 0;95654;2021-12-18 13:54:14:732
-3.621;-7.348;-2.891;-8.0732;4.0797;-3.7924;-1.442;1.0992;-2.0931;105.34;111.36;-79.47;0.0;2.51;36.54;-28.14;34.0;-9.38;72.76;0.0;;;;NaN;;;;0 / 0;95911;2021-12-18 13:54:14:989
2.621;-8.303;-7.101;-7.2449;-2.2841;-6.201;-3.0877;-1.7739;5.9258;44.0;-114.52;83.63;4.0;3.41;37.5;-26.59;27.01;-31.36;57.25;0.0;;;;NaN;;;;0 / 0;96414;2021-12-18 13:54:15:492
-7.578;-18.1219;5.771;-7.7428;5.1906;-3.0454;3.7045;6.7863;11.346;-77.5;-24.54;11.9;12.0;-3.54;44.51;-15.36;20.57;-31.96;111.47;0.0;;;;NaN;;;;0 / 0;97074;2021-12-18 13:54:16:152
-7.578;-18.1219;5.771;-7.7428;5.1906;-3.0454;3.7045;6.7863;11.346;-77.5;-24.54;11.9;12.0;-3.54;44.51;-15.36;20.57;-31.96;111.47;0.0;;;;NaN;;;;0 / 0;97075;2021-12-18 13:54:16:153
-7.578;-18.1219;5.771;-7.7428;5.1906;-3.0454;3.7045;6.7863;11.346;-77.5;-24.54;11.9;12.0;-3.54;44.51;-15.36;20.57;-31.96;111.47;0.0;;;;NaN;;;;0 / 0;97076;2021-12-18 13:54:16:154
-7.578;-18.1219;5.771;-7.7428;5.1906;-3.0454;3.7045;6.7863;11.346;-77.5;-24.54;11.9;12.0;-3.54;44.51;-15.36;20.57;-31.96;111.47;0.0;;;;NaN;;;;0 / 0;97077;2021-12-18 13:54:16:155
-7.578;-18.1219;5.771;-7.7428;5.1906;-3.0454;3.7045;6.7863;11.346;-77.5;-24.54;11.9;12.0;-3.54;44.51;-15.36;20.57;-31.96;111.47;0.0;;;;NaN;;;;0 / 0;97078;2021-12-18 13:54:16:156
-1.223;-14.73;-1.668;-9.7157;0.7997;-1.0965;-2.1875;4.6141;2.7283;11.38;-149.42;-18.65;0.0;-1.99;40.31;-23.59;20.57;-31.96;111.47;0.0;;;;NaN;;;;0 / 0;97214;2021-12-18 13:54:16:292
-3.8171;-9.215;-2.69;-9.4715;2.4325;-0.7183;-1.274;-4.5324;-0.5504;-40.92;145.37;-82.06;14.0;-2.29;43.44;-20.16;25.89;-14.36;94.34;0.0;;;;NaN;;;;0 / 0;97712;2021-12-18 13:54:16:790
-1.685;-7.173;-1.831;-9.7923;0.4549;-0.249;0.0434;-5.7711;1.6359;-40.04;82.04;16.48;0.0;-3.19;38.34;-27.96;38.8;-20.56;100.21;0.0;;;;NaN;;;;0 / 0;98211;2021-12-18 13:54:17:289
1.1891;-6.762;-4.562;-9.4763;0.5842;-2.4612;0.3245;-1.2553;-0.0947;33.51;-122.62;87.09;15.0;-0.54;39.54;-25.8;32.25;-3.41;104.56;0.0;;;;NaN;;;;0 / 0;99020;2021-12-18 13:54:18:098
1.1891;-6.762;-4.562;-9.4763;0.5842;-2.4612;0.3245;-1.2553;-0.0947;33.51;-122.62;87.09;15.0;-0.54;39.54;-25.8;32.25;-3.41;104.56;0.0;;;;NaN;;;;0 / 0;99021;2021-12-18 13:54:18:099
1.1891;-6.762;-4.562;-9.4763;0.5842;-2.4612;0.3245;-1.2553;-0.0947;33.51;-122.62;87.09;15.0;-0.54;39.54;-25.8;32.25;-3.41;104.56;0.0;;;;NaN;;;;0 / 0;99022;2021-12-18 13:54:18:100
1.1891;-6.762;-4.562;-9.4763;0.5842;-2.4612;0.3245;-1.2553;-0.0947;33.51;-122.62;87.09;15.0;-0.54;39.54;-25.8;32.25;-3.41;104.56;0.0;;;;NaN;;;;0 / 0;99023;2021-12-18 13:54:18:101
1.1891;-6.762;-4.562;-9.4763;0.5842;-2.4612;0.3245;-1.2553;-0.0947;33.51;-122.62;87.09;15.0;-0.54;39.54;-25.8;32.25;-3.41;104.56;0.0;;;;NaN;;;;0 / 0;99024;2021-12-18 13:54:18:102
1.1891;-6.762;-4.562;-9.4763;0.5842;-2.4612;0.3245;-1.2553;-0.0947;33.51;-122.62;87.09;15.0;-0.54;39.54;-25.8;32.25;-3.41;104.56;0.0;;;;NaN;;;;0 / 0;99024;2021-12-18 13:54:18:102
1.1891;-6.762;-4.562;-9.4763;0.5842;-2.4612;0.3245;-1.2553;-0.0947;33.51;-122.62;87.09;15.0;-0.54;39.54;-25.8;32.25;-3.41;104.56;0.0;;;;NaN;;;;0 / 0;99025;2021-12-18 13:54:18:103
1.1891;-6.762;-4.562;-9.4763;0.5842;-2.4612;0.3245;-1.2553;-0.0947;33.51;-122.62;87.09;15.0;-0.54;39.54;-25.8;32.25;-3.41;104.56;0.0;;;;NaN;;;;0 / 0;99025;2021-12-18 13:54:18:103
-0.1841;-11.633;0.935;-9.7731;0.1484;0.7805;-1.3599;2.0525;-2.3567;34.53;-43.43;7.22;0.0;-2.04;36.9;-29.34;38.15;-0.87;85.43;0.0;;;;NaN;;;;0 / 0;99210;2021-12-18 13:54:18:288
-2.891;-6.584;-2.6831;-9.5098;2.1356;-1.0965;-3.1715;-6.4442;-0.7051;-20.96;157.51;-111.6;16.0;-1.31;41.59;-22.56;29.49;-12.58;96.58;0.0;;;;NaN;;;;0 / 0;99709;2021-12-18 13:54:18:787
-2.3141;-5.108;-0.7181;-8.8681;3.9983;-1.2306;-0.2122;-4.3228;1.6658;60.9;-6.92;-43.47;0.0;-2.04;38.34;-28.99;36.52;-18.39;86.25;0.0;;;;NaN;;;;0 / 0;100564;2021-12-18 13:54:19:642
-2.3141;-5.108;-0.7181;-8.8681;3.9983;-1.2306;-0.2122;-4.3228;1.6658;60.9;-6.92;-43.47;0.0;-2.04;38.34;-28.99;36.52;-18.39;86.25;0.0;;;;NaN;;;;0 / 0;100565;2021-12-18 13:54:19:643
-0.8209;-7.5731;0.059;-9.3565;2.5283;1.4988;-1.3866;-1.0853;-4.3253;-2.21;7.47;-1.8;0.0;-1.5;38.1;-29.34;41.19;-24.06;97.9;0.0;;;;NaN;;;;0 / 0;100600;2021-12-18 13:54:19:678
-7.384;-11.235;7.6781;-8.3175;4.5203;2.5714;4.5861;-0.115;-5.2247;38.93;-31.38;36.63;32.0;4.99;36.3;-29.76;41.93;-15.26;84.45;0.0;;;;NaN;;;;0 / 0;101102;2021-12-18 13:54:20:180
-1.034;-11.089;5.318;-8.1977;1.6089;5.1332;-2.0748;1.8312;-6.2679;19.1;-228.78;46.45;0.0;3.66;44.34;-18.3;17.79;-24.54;63.79;0.0;;;;NaN;;;;0 / 0;101600;2021-12-18 13:54:20:678
-3.825;-15.752;2.5871;-9.414;2.2793;1.5371;0.3861;5.8371;0.5056;2.17;54.45;-28.55;38.0;3.66;33.54;-33.06;42.19;-13.44;80.73;0.0;;;;NaN;;;;0 / 0;102392;2021-12-18 13:54:21:470
-3.825;-15.752;2.5871;-9.414;2.2793;1.5371;0.3861;5.8371;0.5056;2.17;54.45;-28.55;38.0;3.66;33.54;-33.06;42.19;-13.44;80.73;0.0;;;;NaN;;;;0 / 0;102393;2021-12-18 13:54:21:471
-3.825;-15.752;2.5871;-9.414;2.2793;1.5371;0.3861;5.8371;0.5056;2.17;54.45;-28.55;38.0;3.66;33.54;-33.06;42.19;-13.44;80.73;0.0;;;;NaN;;;;0 / 0;102394;2021-12-18 13:54:21:472
-4.6811;-11.4461;-3.1211;-8.8011;3.5961;-2.399;2.9113;1.8228;3.8667;12.88;34.38;-23.84;32.0;4.2;41.34;-23.34;30.8;-22.39;93.36;0.0;;;;NaN;;;;0 / 0;102616;2021-12-18 13:54:21:694
-0.804;-10.01;-0.629;-9.7588;0.7853;-0.6129;0.3712;-0.9296;1.3452;17.9;-8.24;21.13;0.0;4.99;36.49;-30.49;35.54;-13.35;77.8;0.0;;;;NaN;;;;0 / 0;103115;2021-12-18 13:54:22:193
0.177;-4.217;2.4341;-9.6295;1.6951;0.7853;-3.846;-3.15;-1.4281;-19.34;51.48;-24.76;53.0;7.86;38.64;-25.44;28.34;4.9;68.01;0.0;;;;NaN;;;;0 / 0;103615;2021-12-18 13:54:22:693
-1.4621;-6.975;0.258;-9.4906;2.4756;-0.1149;-1.0616;-2.4882;0.3011;76.43;51.7;-37.31;0.0;7.09;37.2;-28.44;25.53;-4.96;74.1;0.0;;;;NaN;;;;0 / 0;104115;2021-12-18 13:54:23:193
-8.454;-9.445;4.9931;-6.9911;6.3734;2.5857;6.6339;0.7693;-5.0464;17.37;-30.43;36.14;25.0;7.69;35.34;-29.7;29.14;-33.77;62.08;0.0;;;;NaN;;;;0 / 0;104615;2021-12-18 13:54:23:693
-0.114;-10.251;2.6951;-9.4858;0.1006;2.4852;1.0495;-3.9563;-3.9112;37.44;-174.93;31.72;6.0;8.4;40.99;-23.4;26.18;-0.59;75.32;0.0;;;;NaN;;;;0 / 0;105115;2021-12-18 13:54:24:193
-5.172;-8.873;4.32;-7.8099;4.549;3.802;2.7097;-1.3028;-4.1033;21.54;19.54;9.18;12.0;10.86;31.09;-32.89;32.39;-24.46;63.01;0.0;;;;NaN;;;;0 / 0;105615;2021-12-18 13:54:24:693
-3.597;-6.5441;0.234;-8.5904;4.7262;0.3065;2.8019;-5.8716;-3.5358;-90.13;-11.69;10.28;8.0;6.06;41.89;-20.34;30.84;-16.69;110.62;0.0;;;;NaN;;;;0 / 0;106115;2021-12-18 13:54:25:193
-3.276;-14.196;-3.676;-9.4092;1.8771;-2.0207;1.2381;4.6027;3.9538;-20.11;47.09;-33.34;0.0;6.66;33.71;-33.24;45.32;-11.04;102.12;0.0;;;;NaN;;;;0 / 0;106615;2021-12-18 13:54:25:693
-0.4091;-7.6661;-4.7749;-8.6;0.7757;-4.6543;0.0669;12.7852;11.5205;-34.47;22.24;-15.75;18.0;4.01;41.89;-22.5;33.0;-31.33;109.71;0.0;;;;NaN;;;;0 / 0;107115;2021-12-18 13:54:26:193
-2.8309;-6.6851;2.501;-7.5417;0.9529;6.1914;0.4355;-2.7167;-4.0103;-91.0;9.38;-0.32;0.0;4.86;43.8;-20.7;27.66;-16.98;104.91;0.0;;;;NaN;;;;0 / 0;107615;2021-12-18 13:54:26:693
-2.8309;-6.6851;2.501;-7.5417;0.9529;6.1914;0.4355;-2.7167;-4.0103;-91.0;9.38;-0.32;0.0;4.86;43.8;-20.7;27.66;-16.98;104.91;0.0;;;;NaN;;;;0 / 0;107618;2021-12-18 13:54:26:696
0.078;-12.006;3.482;-8.1834;4.9799;2.0925;-2.7983;0.5574;-4.893;12.76;52.44;-18.74;0.0;5.76;42.6;-23.4;17.37;-5.58;50.62;0.0;;;;NaN;;;;0 / 0;107666;2021-12-18 13:54:26:744
1.0811;-4.689;2.81;-8.2552;-1.8962;4.9416;-4.1791;-2.3114;0.5072;-10.01;15.85;6.41;13.0;7.26;37.74;-28.74;36.47;0.9;122.62;0.0;;;;NaN;;;;0 / 0;108167;2021-12-18 13:54:27:245
-1.6219;-5.474;0.141;-8.7388;1.2977;4.2569;-1.9976;-1.7794;-3.5222;32.95;-117.04;11.45;0.0;5.59;39.84;-26.04;33.2;-7.46;93.56;0.0;;;;NaN;;;;0 / 0;108668;2021-12-18 13:54:27:746
-3.427;-7.453;1.5461;-7.7907;4.8028;3.5243;5.0837;-0.1315;-6.4218;39.4;-131.68;98.87;14.0;5.59;37.14;-29.29;30.42;-29.32;65.66;0.0;;;;NaN;;;;0 / 0;109166;2021-12-18 13:54:28:244
-1.187;-6.3191;4.296;-9.2751;-0.7853;3.0933;-3.0101;-0.1019;-5.4893;14.53;-198.89;47.14;0.0;4.09;42.84;-19.8;20.53;-31.07;63.86;0.0;;;;NaN;;;;0 / 0;109667;2021-12-18 13:54:28:745
-1.318;-4.138;-0.928;-9.3039;2.9401;-0.9816;-0.7828;-4.5735;1.3224;82.79;102.95;-72.79;0.0;1.56;38.04;-28.39;34.05;-11.03;74.39;0.0;;;;NaN;;;;0 / 0;110167;2021-12-18 13:54:29:245
-1.318;-4.138;-0.928;-9.3039;2.9401;-0.9816;-0.7828;-4.5735;1.3224;82.79;102.95;-72.79;0.0;1.56;38.04;-28.39;34.05;-11.03;74.39;0.0;;;;NaN;;;;0 / 0;110168;2021-12-18 13:54:29:246
-2.7431;-6.5749;0.222;-9.0501;3.7733;0.3017;-0.9788;-5.3756;1.7292;10.7;46.22;-18.67;0.0;0.49;36.6;-30.0;40.97;-17.45;96.02;0.0;;;;NaN;;;;0 / 0;110168;2021-12-18 13:54:29:246
-0.107;-7.3;-6.278;-9.4332;1.8771;-1.9249;1.1701;9.3772;4.3968;-10.93;32.94;-5.48;0.0;4.61;42.6;-20.46;25.92;-11.03;101.53;0.0;;;;NaN;;;;0 / 0;110408;2021-12-18 13:54:29:486
-0.584;-11.209;1.656;-9.6917;0.4932;1.4269;-2.3269;0.6071;-1.5121;3.85;21.94;-7.54;0.0;2.7;36.6;-29.89;41.1;-18.86;98.67;0.0;;;;NaN;;;;0 / 0;110908;2021-12-18 13:54:29:986
-2.422;-3.904;0.239;-7.3837;5.3486;3.6105;0.0371;-5.571;0.729;2.08;92.36;-63.07;11.0;6.71;40.01;-24.3;25.88;2.94;65.63;0.0;;;;NaN;;;;0 / 0;111408;2021-12-18 13:54:30:486
-2.3959;-5.184;1.385;-8.6574;3.9887;2.3032;-0.6751;-3.5116;1.2713;23.92;-4.18;3.01;0.0;0.36;37.74;-30.24;37.45;-24.0;75.1;0.0;;;;NaN;;;;0 / 0;111908;2021-12-18 13:54:30:986
2.159;-8.468;-4.287;-9.5002;-1.6376;1.8052;-4.5949;-1.4809;-0.136;0.27;-35.43;41.86;14.0;3.79;38.59;-28.5;29.97;-38.89;60.25;0.0;;;;NaN;;;;0 / 0;112408;2021-12-18 13:54:31:486
-1.129;-9.198;0.114;-9.7348;1.1827;0.1149;-1.4986;0.9399;0.604;35.1;-193.64;10.71;0.0;3.9;44.21;-20.16;24.24;-7.94;88.67;0.0;;;;NaN;;;;0 / 0;112908;2021-12-18 13:54:31:986
-0.976;-5.148;0.974;-6.8043;5.1715;4.8028;-1.107;-4.0028;-0.503;9.51;4.47;-3.78;0.0;0.71;39.41;-28.99;36.28;-10.21;83.7;0.0;;;;NaN;;;;0 / 0;113408;2021-12-18 13:54:32:486
-3.702;-6.477;0.0161;-7.7907;3.8211;4.5681;1.3427;-2.9631;-1.3088;-11.94;-48.18;14.83;0.0;1.56;44.04;-20.1;23.05;-23.6;72.68;0.0;;;;NaN;;;;0 / 0;113907;2021-12-18 13:54:32:985
-2.424;-11.4581;2.819;-8.8873;3.3232;2.49;-0.297;4.5634;3.3863;-16.5;64.33;-20.8;14.0;3.71;35.81;-32.16;43.42;-1.93;93.89;0.0;;;;NaN;;;;0 / 0;114406;2021-12-18 13:54:33:484
-0.708;-6.252;-2.135;-9.232;1.0247;-3.1364;-0.9525;-2.6194;1.9493;23.85;-113.71;74.22;17.0;2.21;39.6;-27.36;32.13;-15.63;75.62;0.0;;;;NaN;;;;0 / 0;114909;2021-12-18 13:54:33:987
-0.804;-14.2849;-1.5791;-9.7348;0.5459;-1.0678;-0.6449;3.7205;2.0779;5.81;-26.8;-7.02;4.0;-2.7;39.49;-27.66;35.68;-2.99;79.04;0.0;;;;NaN;;;;0 / 0;115280;2021-12-18 13:54:34:358
-3.272;-7.736;-2.2661;-8.7915;3.9552;-1.8052;-1.1887;-3.6821;0.5431;-30.13;76.93;-50.97;23.0;-4.2;45.79;-18.19;23.31;-23.78;101.6;0.0;;;;NaN;;;;0 / 0;115784;2021-12-18 13:54:34:862
-2.235;-6.024;2.3051;-8.2073;-0.0527;5.3678;-1.8541;-2.9729;-6.2125;23.32;-146.75;11.21;0.0;-5.04;46.09;-16.69;20.25;0.31;56.81;0.0;;;;NaN;;;;0 / 0;116374;2021-12-18 13:54:35:452
-2.235;-6.024;2.3051;-8.2073;-0.0527;5.3678;-1.8541;-2.9729;-6.2125;23.32;-146.75;11.21;0.0;-5.04;46.09;-16.69;20.25;0.31;56.81;0.0;;;;NaN;;;;0 / 0;116376;2021-12-18 13:54:35:454
-0.2081;-10.938;3.7811;-8.2791;3.3471;-4.0558;-3.2166;-0.4898;-3.6382;2.28;-27.59;5.11;0.0;-5.29;45.49;-17.76;21.6;0.31;56.81;0.0;;;;NaN;;;;0 / 0;116413;2021-12-18 13:54:35:491
-2.264;-6.855;0.078;-8.6048;-0.8045;-4.6352;-0.8047;-2.3996;1.0263;28.51;-99.19;91.8;9.0;-7.14;40.69;-24.49;33.45;-22.35;74.2;0.0;;;;NaN;;;;0 / 0;116913;2021-12-18 13:54:35:991
-1.448;-11.039;5.0411;-9.7013;1.4269;-0.2011;-0.971;3.0263;-0.5085;-22.58;-44.72;17.3;0.0;-6.11;45.49;-18.06;21.94;-11.75;55.03;0.0;;;;NaN;;;;0 / 0;117744;2021-12-18 13:54:36:822
-1.448;-11.039;5.0411;-9.7013;1.4269;-0.2011;-0.971;3.0263;-0.5085;-22.58;-44.72;17.3;0.0;-6.11;45.49;-18.06;21.94;-11.75;55.03;0.0;;;;NaN;;;;0 / 0;117745;2021-12-18 13:54:36:823
-1.448;-11.039;5.0411;-9.7013;1.4269;-0.2011;-0.971;3.0263;-0.5085;-22.58;-44.72;17.3;0.0;-6.11;45.49;-18.06;21.94;-11.75;55.03;0.0;;;;NaN;;;;0 / 0;117745;2021-12-18 13:54:36:823
-1.448;-11.039;5.0411;-9.7013;1.4269;-0.2011;-0.971;3.0263;-0.5085;-22.58;-44.72;17.3;0.0;-6.11;45.49;-18.06;21.94;-11.75;55.03;0.0;;;;NaN;;;;0 / 0;117746;2021-12-18 13:54:36:824
-1.448;-11.039;5.0411;-9.7013;1.4269;-0.2011;-0.971;3.0263;-0.5085;-22.58;-44.72;17.3;0.0;-6.11;45.49;-18.06;21.94;-11.75;55.03;0.0;;;;NaN;;;;0 / 0;117747;2021-12-18 13:54:36:825
-1.448;-11.039;5.0411;-9.7013;1.4269;-0.2011;-0.971;3.0263;-0.5085;-22.58;-44.72;17.3;0.0;-6.11;45.49;-18.06;21.94;-11.75;55.03;0.0;;;;NaN;;;;0 / 0;117747;2021-12-18 13:54:36:825
-4.626;-10.532;-1.4839;-9.3613;2.8826;-0.5219;3.6248;0.8035;0.6911;-18.62;110.92;-52.01;21.0;-11.34;43.91;-14.34;19.1;-17.09;93.19;0.0;;;;NaN;;;;0 / 0;117979;2021-12-18 13:54:37:057
-1.062;-8.626;0.974;-9.6151;1.9058;-0.3687;-1.5188;-3.3582;2.0833;-27.11;78.68;14.55;0.0;-11.94;40.44;-22.14;24.63;-21.25;108.48;0.0;;;;NaN;;;;0 / 0;118482;2021-12-18 13:54:37:560
0.83;-4.409;2.127;-9.6822;-1.4844;0.4693;-4.1003;-3.0181;0.746;13.46;-54.45;34.11;23.0;-9.84;43.09;-21.66;33.87;-29.9;58.94;0.0;;;;NaN;;;;0 / 0;119309;2021-12-18 13:54:38:387
0.83;-4.409;2.127;-9.6822;-1.4844;0.4693;-4.1003;-3.0181;0.746;13.46;-54.45;34.11;23.0;-9.84;43.09;-21.66;33.87;-29.9;58.94;0.0;;;;NaN;;;;0 / 0;119310;2021-12-18 13:54:38:388
0.83;-4.409;2.127;-9.6822;-1.4844;0.4693;-4.1003;-3.0181;0.746;13.46;-54.45;34.11;23.0;-9.84;43.09;-21.66;33.87;-29.9;58.94;0.0;;;;NaN;;;;0 / 0;119310;2021-12-18 13:54:38:388
0.83;-4.409;2.127;-9.6822;-1.4844;0.4693;-4.1003;-3.0181;0.746;13.46;-54.45;34.11;23.0;-9.84;43.09;-21.66;33.87;-29.9;58.94;0.0;;;;NaN;;;;0 / 0;119311;2021-12-18 13:54:38:389
0.83;-4.409;2.127;-9.6822;-1.4844;0.4693;-4.1003;-3.0181;0.746;13.46;-54.45;34.11;23.0;-9.84;43.09;-21.66;33.87;-29.9;58.94;0.0;;;;NaN;;;;0 / 0;119311;2021-12-18 13:54:38:389
0.83;-4.409;2.127;-9.6822;-1.4844;0.4693;-4.1003;-3.0181;0.746;13.46;-54.45;34.11;23.0;-9.84;43.09;-21.66;33.87;-29.9;58.94;0.0;;;;NaN;;;;0 / 0;119312;2021-12-18 13:54:38:390
0.83;-4.409;2.127;-9.6822;-1.4844;0.4693;-4.1003;-3.0181;0.746;13.46;-54.45;34.11;23.0;-9.84;43.09;-21.66;33.87;-29.9;58.94;0.0;;;;NaN;;;;0 / 0;119312;2021-12-18 13:54:38:390
0.83;-4.409;2.127;-9.6822;-1.4844;0.4693;-4.1003;-3.0181;0.746;13.46;-54.45;34.11;23.0;-9.84;43.09;-21.66;33.87;-29.9;58.94;0.0;;;;NaN;;;;0 / 0;119313;2021-12-18 13:54:38:391
0.83;-4.409;2.127;-9.6822;-1.4844;0.4693;-4.1003;-3.0181;0.746;13.46;-54.45;34.11;23.0;-9.84;43.09;-21.66;33.87;-29.9;58.94;0.0;;;;NaN;;;;0 / 0;119313;2021-12-18 13:54:38:391
0.83;-4.409;2.127;-9.6822;-1.4844;0.4693;-4.1003;-3.0181;0.746;13.46;-54.45;34.11;23.0;-9.84;43.09;-21.66;33.87;-29.9;58.94;0.0;;;;NaN;;;;0 / 0;119313;2021-12-18 13:54:38:391
0.83;-4.409;2.127;-9.6822;-1.4844;0.4693;-4.1003;-3.0181;0.746;13.46;-54.45;34.11;23.0;-9.84;43.09;-21.66;33.87;-29.9;58.94;0.0;;;;NaN;;;;0 / 0;119314;2021-12-18 13:54:38:392
0.83;-4.409;2.127;-9.6822;-1.4844;0.4693;-4.1003;-3.0181;0.746;13.46;-54.45;34.11;23.0;-9.84;43.09;-21.66;33.87;-29.9;58.94;0.0;;;;NaN;;;;0 / 0;119314;2021-12-18 13:54:38:392
0.83;-4.409;2.127;-9.6822;-1.4844;0.4693;-4.1003;-3.0181;0.746;13.46;-54.45;34.11;23.0;-9.84;43.09;-21.66;33.87;-29.9;58.94;0.0;;;;NaN;;;;0 / 0;119314;2021-12-18 13:54:38:392
0.83;-4.409;2.127;-9.6822;-1.4844;0.4693;-4.1003;-3.0181;0.746;13.46;-54.45;34.11;23.0;-9.84;43.09;-21.66;33.87;-29.9;58.94;0.0;;;;NaN;;;;0 / 0;119315;2021-12-18 13:54:38:393
0.83;-4.409;2.127;-9.6822;-1.4844;0.4693;-4.1003;-3.0181;0.746;13.46;-54.45;34.11;23.0;-9.84;43.09;-21.66;33.87;-29.9;58.94;0.0;;;;NaN;;;;0 / 0;119316;2021-12-18 13:54:38:394
0.83;-4.409;2.127;-9.6822;-1.4844;0.4693;-4.1003;-3.0181;0.746;13.46;-54.45;34.11;23.0;-9.84;43.09;-21.66;33.87;-29.9;58.94;0.0;;;;NaN;;;;0 / 0;119316;2021-12-18 13:54:38:394
0.83;-4.409;2.127;-9.6822;-1.4844;0.4693;-4.1003;-3.0181;0.746;13.46;-54.45;34.11;23.0;-9.84;43.09;-21.66;33.87;-29.9;58.94;0.0;;;;NaN;;;;0 / 0;119317;2021-12-18 13:54:38:395
-2.113;-9.2989;1.8551;-9.3853;2.1356;1.8723;2.5381;4.8245;-0.3599;-22.24;32.84;-1.76;215.0;-13.69;41.21;-18.49;28.35;-12.58;78.72;0.0;;;;NaN;;;;0 / 0;119650;2021-12-18 13:54:38:728
-3.6191;-12.0349;-0.0551;-8.6957;2.7485;3.6105;0.882;2.791;7.9245;-77.07;36.98;22.94;13.0;-15.24;44.21;-4.8;3.65;-15.84;102.96;0.0;;;;NaN;;;;0 / 0;120147;2021-12-18 13:54:39:225
-1.565;-11.6711;1.3301;-9.7348;0.747;0.9146;-1.2923;2.2782;-1.0445;48.66;-216.0;35.66;13.0;-14.7;44.1;-5.34;12.43;-16.27;67.45;0.0;;;;NaN;;;;0 / 0;120687;2021-12-18 13:54:39:765
-1.565;-11.6711;1.3301;-9.7348;0.747;0.9146;-1.2923;2.2782;-1.0445;48.66;-216.0;35.66;13.0;-14.7;44.1;-5.34;12.43;-16.27;67.45;0.0;;;;NaN;;;;0 / 0;120688;2021-12-18 13:54:39:766
-1.565;-11.6711;1.3301;-9.7348;0.747;0.9146;-1.2923;2.2782;-1.0445;48.66;-216.0;35.66;13.0;-14.7;44.1;-5.34;12.43;-16.27;67.45;0.0;;;;NaN;;;;0 / 0;120689;2021-12-18 13:54:39:767
-1.565;-11.6711;1.3301;-9.7348;0.747;0.9146;-1.2923;2.2782;-1.0445;48.66;-216.0;35.66;13.0;-14.7;44.1;-5.34;12.43;-16.27;67.45;0.0;;;;NaN;;;;0 / 0;120689;2021-12-18 13:54:39:767
-1.565;-11.6711;1.3301;-9.7348;0.747;0.9146;-1.2923;2.2782;-1.0445;48.66;-216.0;35.66;13.0;-14.7;44.1;-5.34;12.43;-16.27;67.45;0.0;;;;NaN;;;;0 / 0;120690;2021-12-18 13:54:39:768
-2.604;-8.988;0.567;-8.9926;3.4716;-1.81;2.7424;3.8476;4.0119;20.05;-32.38;-28.0;0.0;-16.2;43.39;-8.46;12.78;-4.37;84.63;0.0;;;;NaN;;;;0 / 0;120703;2021-12-18 13:54:39:781
-2.802;-12.016;0.3011;-9.7252;0.1053;1.2737;-3.5029;1.1983;-3.5715;27.87;-166.62;22.57;0.0;-14.04;42.19;-3.9;7.87;-0.62;82.54;0.0;;;;NaN;;;;0 / 0;121015;2021-12-18 13:54:40:093
-8.593;-11.5871;4.2101;-7.4843;5.612;2.9401;2.6206;-0.6365;-1.7099;19.8;6.87;16.1;162.0;-14.89;40.44;-10.5;23.89;-32.66;83.54;0.0;;;;NaN;;;;0 / 0;121516;2021-12-18 13:54:40:594
-0.528;-4.6691;0.4061;-8.983;-0.6369;3.8882;-2.1888;-6.1377;-0.964;-1.36;-4.59;-28.57;162.0;-14.89;41.94;-5.7;12.57;-6.22;87.16;0.0;;;;NaN;;;;0 / 0;122082;2021-12-18 13:54:41:160
-0.528;-4.6691;0.4061;-8.983;-0.6369;3.8882;-2.1888;-6.1377;-0.964;-1.36;-4.59;-28.57;162.0;-14.89;41.94;-5.7;12.57;-6.22;87.16;0.0;;;;NaN;;;;0 / 0;122083;2021-12-18 13:54:41:161
-0.528;-4.6691;0.4061;-8.983;-0.6369;3.8882;-2.1888;-6.1377;-0.964;-1.36;-4.59;-28.57;162.0;-14.89;41.94;-5.7;12.57;-6.22;87.16;0.0;;;;NaN;;;;0 / 0;122084;2021-12-18 13:54:41:162
-0.528;-4.6691;0.4061;-8.983;-0.6369;3.8882;-2.1888;-6.1377;-0.964;-1.36;-4.59;-28.57;162.0;-14.89;41.94;-5.7;12.57;-6.22;87.16;0.0;;;;NaN;;;;0 / 0;122084;2021-12-18 13:54:41:162
-0.528;-4.6691;0.4061;-8.983;-0.6369;3.8882;-2.1888;-6.1377;-0.964;-1.36;-4.59;-28.57;162.0;-14.89;41.94;-5.7;12.57;-6.22;87.16;0.0;;;;NaN;;;;0 / 0;122085;2021-12-18 13:54:41:163
-1.833;-5.826;-1.728;-9.6917;-1.0487;-1.0918;4.7758;8.568;4.6021;17.98;-146.44;-0.35;92.0;-13.99;42.49;-2.34;9.83;3.72;66.6;0.0;;;;NaN;;;;0 / 0;122119;2021-12-18 13:54:41:197
-0.792;-6.7519;-1.424;-9.5337;1.1157;-2.0016;-1.9883;-3.3667;1.3962;-41.75;86.07;-103.61;19.0;-23.34;34.74;-2.59;12.35;17.01;75.39;0.0;;;;NaN;;;;0 / 0;122618;2021-12-18 13:54:41:696
-0.8711;-7.135;-1.46;-9.5433;1.1492;-1.9537;-1.4249;-2.513;3.7895;-20.85;28.94;3.08;0.0;-23.4;29.29;-1.74;354.2;-6.73;101.57;0.0;;;;NaN;;;;0 / 0;123439;2021-12-18 13:54:42:517
0.026;-3.65;-1.397;-9.1602;-0.0335;-3.5003;-5.473;-0.659;6.4801;13.39;58.78;-28.83;0.0;-17.1;28.44;-9.0;6.05;16.56;107.67;0.0;;;;NaN;;;;0 / 0;123622;2021-12-18 13:54:42:700
-1.065;-10.314;5.519;-8.6096;0.8859;4.6064;-0.5787;2.8184;-1.4065;78.66;-131.18;1.15;0.0;-19.2;32.89;-11.59;31.52;-5.18;61.85;0.0;;;;NaN;;;;0 / 0;124118;2021-12-18 13:54:43:196
-2.343;-9.024;2.975;-9.4858;2.1261;1.3024;-0.1814;-0.436;-2.3012;53.77;-76.64;88.46;3.0;-23.1;35.51;-12.79;42.75;-29.38;52.08;0.0;;;;NaN;;;;0 / 0;124618;2021-12-18 13:54:43:696
2.886;-6.556;7.346;-8.8681;-1.0151;4.0558;-3.6417;0.2638;-4.6121;27.02;-107.89;-2.77;0.0;-16.8;40.09;-2.34;13.21;-14.63;67.94;0.0;;;;NaN;;;;0 / 0;125481;2021-12-18 13:54:44:559
2.886;-6.556;7.346;-8.8681;-1.0151;4.0558;-3.6417;0.2638;-4.6121;27.02;-107.89;-2.77;0.0;-16.8;40.09;-2.34;13.21;-14.63;67.94;0.0;;;;NaN;;;;0 / 0;125482;2021-12-18 13:54:44:560
2.886;-6.556;7.346;-8.8681;-1.0151;4.0558;-3.6417;0.2638;-4.6121;27.02;-107.89;-2.77;0.0;-16.8;40.09;-2.34;13.21;-14.63;67.94;0.0;;;;NaN;;;;0 / 0;125482;2021-12-18 13:54:44:560
-4.94;-10.9549;1.5821;-9.6822;1.3264;0.8571;3.1981;5.9656;-2.2814;-12.86;103.36;-42.07;0.0;-7.8;28.99;-12.06;24.48;-7.77;84.94;0.0;;;;NaN;;;;0 / 0;125816;2021-12-18 13:54:44:894
-1.409;-5.766;-4.7989;-7.8434;-0.3639;-5.8754;-2.179;-0.4678;5.8124;-83.88;29.42;14.5;0.0;-30.11;43.09;-5.59;343.32;2.13;126.84;0.0;;;;NaN;;;;0 / 0;126315;2021-12-18 13:54:45:393
-2.1919;-8.3839;1.196;-9.4044;2.4469;1.3312;-1.1274;-0.505;-2.872;79.62;-94.54;-22.4;0.0;-27.3;36.71;-19.2;30.72;-2.15;84.7;0.0;;;;NaN;;;;0 / 0;126886;2021-12-18 13:54:45:964
-2.1919;-8.3839;1.196;-9.4044;2.4469;1.3312;-1.1274;-0.505;-2.872;79.62;-94.54;-22.4;0.0;-27.3;36.71;-19.2;30.72;-2.15;84.7;0.0;;;;NaN;;;;0 / 0;126887;2021-12-18 13:54:45:965
-2.1919;-8.3839;1.196;-9.4044;2.4469;1.3312;-1.1274;-0.505;-2.872;79.62;-94.54;-22.4;0.0;-27.3;36.71;-19.2;30.72;-2.15;84.7;0.0;;;;NaN;;;;0 / 0;126888;2021-12-18 13:54:45:966
-2.1919;-8.3839;1.196;-9.4044;2.4469;1.3312;-1.1274;-0.505;-2.872;79.62;-94.54;-22.4;0.0;-27.3;36.71;-19.2;30.72;-2.15;84.7;0.0;;;;NaN;;;;0 / 0;126888;2021-12-18 13:54:45:966
-2.1919;-8.3839;1.196;-9.4044;2.4469;1.3312;-1.1274;-0.505;-2.872;79.62;-94.54;-22.4;0.0;-27.3;36.71;-19.2;30.72;-2.15;84.7;0.0;;;;NaN;;;;0 / 0;126889;2021-12-18 13:54:45:967
-2.1919;-8.3839;1.196;-9.4044;2.4469;1.3312;-1.1274;-0.505;-2.872;79.62;-94.54;-22.4;0.0;-27.3;36.71;-19.2;30.72;-2.15;84.7;0.0;;;;NaN;;;;0 / 0;126889;2021-12-18 13:54:45:967
-2.1919;-8.3839;1.196;-9.4044;2.4469;1.3312;-1.1274;-0.505;-2.872;79.62;-94.54;-22.4;0.0;-27.3;36.71;-19.2;30.72;-2.15;84.7;0.0;;;;NaN;;;;0 / 0;126890;2021-12-18 13:54:45:968
-2.1919;-8.3839;1.196;-9.4044;2.4469;1.3312;-1.1274;-0.505;-2.872;79.62;-94.54;-22.4;0.0;-27.3;36.71;-19.2;30.72;-2.15;84.7;0.0;;;;NaN;;;;0 / 0;126893;2021-12-18 13:54:45:971
-2.1919;-8.3839;1.196;-9.4044;2.4469;1.3312;-1.1274;-0.505;-2.872;79.62;-94.54;-22.4;0.0;-27.3;36.71;-19.2;30.72;-2.15;84.7;0.0;;;;NaN;;;;0 / 0;126899;2021-12-18 13:54:45:977
-2.1919;-8.3839;1.196;-9.4044;2.4469;1.3312;-1.1274;-0.505;-2.872;79.62;-94.54;-22.4;0.0;-27.3;36.71;-19.2;30.72;-2.15;84.7;0.0;;;;NaN;;;;0 / 0;126900;2021-12-18 13:54:45:978
-2.1919;-8.3839;1.196;-9.4044;2.4469;1.3312;-1.1274;-0.505;-2.872;79.62;-94.54;-22.4;0.0;-27.3;36.71;-19.2;30.72;-2.15;84.7;0.0;;;;NaN;;;;0 / 0;126901;2021-12-18 13:54:45:979
-2.1919;-8.3839;1.196;-9.4044;2.4469;1.3312;-1.1274;-0.505;-2.872;79.62;-94.54;-22.4;0.0;-27.3;36.71;-19.2;30.72;-2.15;84.7;0.0;;;;NaN;;;;0 / 0;126902;2021-12-18 13:54:45:980
-2.1919;-8.3839;1.196;-9.4044;2.4469;1.3312;-1.1274;-0.505;-2.872;79.62;-94.54;-22.4;0.0;-27.3;36.71;-19.2;30.72;-2.15;84.7;0.0;;;;NaN;;;;0 / 0;126903;2021-12-18 13:54:45:981
0.6671;-12.281;-0.514;-9.7827;-0.5219;-0.4022;-2.7745;2.7261;1.2453;-20.63;52.73;-16.4;0.0;-13.74;45.24;-15.66;18.63;3.05;92.35;0.0;;;;NaN;;;;0 / 0;127123;2021-12-18 13:54:46:201
-3.877;-16.391;-3.8629;-8.6239;1.5323;-4.4101;2.2873;3.4562;3.362;-40.46;-32.09;16.1;384.0;-15.6;47.51;-3.6;357.61;-17.06;110.01;0.0;;;;NaN;;;;0 / 0;127626;2021-12-18 13:54:46:704
-2.0869;-9.244;2.6831;-9.2081;2.0782;2.6624;-0.9529;2.0974;-4.1682;49.68;-198.28;7.84;0.0;-15.41;45.79;-9.06;16.8;-12.23;73.87;0.0;;;;NaN;;;;0 / 0;128288;2021-12-18 13:54:47:366
-2.0869;-9.244;2.6831;-9.2081;2.0782;2.6624;-0.9529;2.0974;-4.1682;49.68;-198.28;7.84;0.0;-15.41;45.79;-9.06;16.8;-12.23;73.87;0.0;;;;NaN;;;;0 / 0;128289;2021-12-18 13:54:47:367
-1.874;-5.909;-1.9;-8.5904;3.6009;3.0646;-2.0595;-3.7422;1.6141;3.88;62.25;-3.99;18.0;-15.71;45.24;-10.14;18.78;-12.23;73.87;0.0;;;;NaN;;;;0 / 0;128322;2021-12-18 13:54:47:400
1.931;-7.0009;-3.542;-8.1738;-1.4796;-5.2194;-1.9705;-3.1093;2.3314;19.82;-57.79;40.22;369.0;-11.64;43.69;-12.6;5.58;8.67;122.56;0.0;;;;NaN;;;;0 / 0;128823;2021-12-18 13:54:47:901
-2.448;-8.4829;0.978;-9.3996;1.7286;2.1979;-2.1581;3.4718;-2.8381;41.98;-248.0;28.27;0.0;-12.49;46.14;-9.84;15.95;-10.15;76.84;0.0;;;;NaN;;;;0 / 0;129399;2021-12-18 13:54:48:477
-1.7921;-7.978;3.458;-7.5992;4.3;4.4676;6.4953;1.0544;-5.9664;29.95;-97.59;93.45;333.0;-10.01;43.14;-16.09;28.18;-31.7;74.49;0.0;;;;NaN;;;;0 / 0;129823;2021-12-18 13:54:48:901
-1.282;-15.352;3.5471;-8.4228;0.3496;5.0135;0.7348;-6.4218;-3.5033;34.96;-265.0;39.19;0.0;-9.24;46.69;-6.36;2.34;-35.76;106.24;0.0;;;;NaN;;;;0 / 0;130323;2021-12-18 13:54:49:401
-0.4399;-17.052;0.6101;-9.7971;0.249;0.3448;-1.454;7.4195;-0.8487;12.04;109.85;-47.06;246.0;-10.09;43.01;-17.46;20.87;6.93;91.38;0.0;;;;NaN;;;;0 / 0;130825;2021-12-18 13:54:49:903
-3.36;-3.9799;-1.361;-7.2592;6.1148;-2.4612;4.7118;5.2314;-12.0267;-24.67;-61.68;19.12;0.0;-14.4;48.19;-2.04;9.98;-14.57;65.4;0.0;;;;NaN;;;;0 / 0;131323;2021-12-18 13:54:50:401
-0.471;-14.385;0.021;-9.7205;0.9433;0.9098;-2.2566;4.4525;1.6646;-5.18;96.07;-43.98;3.0;-15.49;44.4;-12.9;22.74;-20.37;62.31;0.0;;;;NaN;;;;0 / 0;131823;2021-12-18 13:54:50:901
-1.788;-19.3091;-14.988;-7.7237;0.7135;-5.9999;0.8861;9.384;6.0097;-27.69;-38.02;18.55;36.0;-16.44;44.94;0.54;359.27;-15.06;95.37;0.0;;;;NaN;;;;0 / 0;132322;2021-12-18 13:54:51:400
-1.6541;-12.164;-0.4999;-9.7731;0.6033;-0.589;-2.3039;-0.551;-1.3115;-5.84;96.48;-44.91;3.0;-15.9;42.49;-9.66;12.44;-3.53;93.45;0.0;;;;NaN;;;;0 / 0;132822;2021-12-18 13:54:51:900
-4.018;-11.357;1.553;-9.1698;3.237;1.2546;1.554;2.0102;0.4034;-7.45;94.29;-11.13;137.0;-15.24;42.49;-13.14;14.66;-2.8;98.09;0.0;;;;NaN;;;;0 / 0;133322;2021-12-18 13:54:52:400
-4.018;-11.357;1.553;-9.1698;3.237;1.2546;1.554;2.0102;0.4034;-7.45;94.29;-11.13;137.0;-15.24;42.49;-13.14;14.66;-2.8;98.09;0.0;;;;NaN;;;;0 / 0;133324;2021-12-18 13:54:52:402
-4.018;-11.357;1.553;-9.1698;3.237;1.2546;1.554;2.0102;0.4034;-7.45;94.29;-11.13;137.0;-15.24;42.49;-13.14;14.66;-2.8;98.09;0.0;;;;NaN;;;;0 / 0;133324;2021-12-18 13:54:52:402
-4.018;-11.357;1.553;-9.1698;3.237;1.2546;1.554;2.0102;0.4034;-7.45;94.29;-11.13;137.0;-15.24;42.49;-13.14;14.66;-2.8;98.09;0.0;;;;NaN;;;;0 / 0;133325;2021-12-18 13:54:52:403
-4.018;-11.357;1.553;-9.1698;3.237;1.2546;1.554;2.0102;0.4034;-7.45;94.29;-11.13;137.0;-15.24;42.49;-13.14;14.66;-2.8;98.09;0.0;;;;NaN;;;;0 / 0;133325;2021-12-18 13:54:52:403
-4.018;-11.357;1.553;-9.1698;3.237;1.2546;1.554;2.0102;0.4034;-7.45;94.29;-11.13;137.0;-15.24;42.49;-13.14;14.66;-2.8;98.09;0.0;;;;NaN;;;;0 / 0;133334;2021-12-18 13:54:52:412
-7.9699;-11.7;6.0;-7.4651;5.0853;3.8259;7.6807;0.9252;-5.9642;12.57;-39.49;25.9;455.0;-15.79;44.21;-7.5;17.0;-25.38;81.67;0.0;;;;NaN;;;;0 / 0;133741;2021-12-18 13:54:52:819
-7.683;-14.524;5.7041;-8.0254;5.1619;2.2553;5.0685;5.0988;-6.4644;-48.31;77.88;23.37;254.0;-10.09;45.3;0.66;1.85;-15.93;76.79;0.0;;;;NaN;;;;0 / 0;134240;2021-12-18 13:54:53:318
2.393;-6.9769;-0.315;-8.8921;3.8786;1.4509;2.8517;3.4913;-0.0749;15.69;-136.52;-5.51;3.0;-8.64;45.3;1.61;5.87;16.71;47.07;0.0;;;;NaN;;;;0 / 0;134740;2021-12-18 13:54:53:818
2.393;-6.9769;-0.315;-8.8921;3.8786;1.4509;2.8517;3.4913;-0.0749;15.69;-136.52;-5.51;3.0;-8.64;45.3;1.61;5.87;16.71;47.07;0.0;;;;NaN;;;;0 / 0;134741;2021-12-18 13:54:53:819
2.393;-6.9769;-0.315;-9.2703;-3.1699;-0.4166;-4.3041;-0.8319;3.5043;15.69;-136.52;-5.51;3.0;-8.64;45.3;1.61;5.87;16.71;47.07;0.0;;;;NaN;;;;0 / 0;134742;2021-12-18 13:54:53:820
2.393;-6.9769;-0.315;-9.2703;-3.1699;-0.4166;-4.3041;-0.8319;3.5043;15.69;-136.52;-5.51;3.0;-8.64;45.3;1.61;5.87;16.71;47.07;0.0;;;;NaN;;;;0 / 0;134742;2021-12-18 13:54:53:820
2.393;-6.9769;-0.315;-9.2703;-3.1699;-0.4166;-4.3041;-0.8319;3.5043;15.69;-136.52;-5.51;3.0;-8.64;45.3;1.61;5.87;16.71;47.07;0.0;;;;NaN;;;;0 / 0;134743;2021-12-18 13:54:53:821
-1.6459;-4.179;0.1571;-9.1267;3.5769;0.3304;-0.3185;-5.0783;1.2484;-45.96;107.54;-88.17;3.0;-16.69;43.39;5.81;350.9;2.52;93.39;0.0;;;;NaN;;;;0 / 0;134894;2021-12-18 13:54:53:972
-2.1469;-7.314;-1.9481;-9.1171;2.6719;-2.4325;1.883;-0.6137;3.975;39.31;-75.98;-16.88;402.0;-17.89;44.04;0.24;358.03;-2.83;81.11;0.0;;;;NaN;;;;0 / 0;135395;2021-12-18 13:54:54:473
-6.649;-11.805;5.469;-7.9248;4.4676;3.6679;5.9968;2.0017;-6.3772;25.15;7.24;17.56;627.0;-16.74;43.8;-9.24;13.8;-10.95;87.12;0.0;;;;NaN;;;;0 / 0;136133;2021-12-18 13:54:55:211
-6.649;-11.805;5.469;-7.9248;4.4676;3.6679;5.9968;2.0017;-6.3772;25.15;7.24;17.56;627.0;-16.74;43.8;-9.24;13.8;-10.95;87.12;0.0;;;;NaN;;;;0 / 0;136134;2021-12-18 13:54:55:212
-6.649;-11.805;5.469;-7.9248;4.4676;3.6679;5.9968;2.0017;-6.3772;25.15;7.24;17.56;627.0;-16.74;43.8;-9.24;13.8;-10.95;87.12;0.0;;;;NaN;;;;0 / 0;136135;2021-12-18 13:54:55:213
-6.649;-11.805;5.469;-7.9248;4.4676;3.6679;5.9968;2.0017;-6.3772;25.15;7.24;17.56;627.0;-16.74;43.8;-9.24;13.8;-10.95;87.12;0.0;;;;NaN;;;;0 / 0;136136;2021-12-18 13:54:55:214
-6.649;-11.805;5.469;-7.9248;4.4676;3.6679;5.9968;2.0017;-6.3772;25.15;7.24;17.56;627.0;-16.74;43.8;-9.24;13.8;-10.95;87.12;0.0;;;;NaN;;;;0 / 0;136137;2021-12-18 13:54:55:215
-6.649;-11.805;5.469;-7.9248;4.4676;3.6679;5.9968;2.0017;-6.3772;25.15;7.24;17.56;627.0;-17.64;43.39;-7.39;23.38;-27.09;65.16;0.0;;;;NaN;;;;0 / 0;136148;2021-12-18 13:54:55:226
-0.181;-11.513;-1.002;-9.7683;0.1484;-0.8428;-2.106;2.0932;2.5098;-1.39;-50.55;-6.92;627.0;-16.14;44.1;-3.3;23.38;-27.09;65.16;0.0;;;;NaN;;;;0 / 0;136270;2021-12-18 13:54:55:348
-1.9189;-6.7781;0.6101;-9.3039;2.8778;1.1636;1.3865;-1.6622;-0.7;-19.92;-41.1;-17.64;847.0;-14.34;43.14;5.04;355.0;-17.06;82.87;0.0;;;;NaN;;;;0 / 0;136774;2021-12-18 13:54:55:852
-2.621;-7.7119;-5.376;-7.7524;2.6288;-5.3965;0.1256;-0.3963;2.342;20.43;-72.05;-2.79;62.0;-16.69;42.54;1.44;344.44;-15.55;124.84;0.0;;;;NaN;;;;0 / 0;137270;2021-12-18 13:54:56:348
-6.807;-10.2469;6.3041;-7.2736;4.8267;4.4676;5.7239;0.9566;-4.8651;8.21;45.02;-6.52;481.0;-17.04;41.81;-6.19;8.01;-15.43;93.17;0.0;;;;NaN;;;;0 / 0;137970;2021-12-18 13:54:57:048
-6.3071;-10.524;4.794;-7.8338;4.6974;3.5626;4.7771;0.6463;-6.2282;38.23;-56.41;66.2;481.0;-18.19;41.51;-4.14;23.13;-29.49;58.44;0.0;;;;NaN;;;;0 / 0;137971;2021-12-18 13:54:57:049
-6.3071;-10.524;4.794;-7.8338;4.6974;3.5626;4.7771;0.6463;-6.2282;38.23;-56.41;66.2;481.0;-18.19;41.51;-4.14;23.13;-29.49;58.44;0.0;;;;NaN;;;;0 / 0;137972;2021-12-18 13:54:57:050
-6.3071;-10.524;4.794;-7.8338;4.6974;3.5626;4.7771;0.6463;-6.2282;38.23;-56.41;66.2;481.0;-18.19;41.51;-4.14;23.13;-29.49;58.44;0.0;;;;NaN;;;;0 / 0;137973;2021-12-18 13:54:57:051
-6.3071;-10.524;4.794;-7.8338;4.6974;3.5626;4.7771;0.6463;-6.2282;38.23;-56.41;66.2;481.0;-18.19;41.51;-4.14;23.13;-29.49;58.44;0.0;;;;NaN;;;;0 / 0;137973;2021-12-18 13:54:57:051
-6.3071;-10.524;4.794;-7.8338;4.6974;3.5626;4.7771;0.6463;-6.2282;38.23;-56.41;66.2;481.0;-18.19;41.51;-4.14;23.13;-29.49;58.44;0.0;;;;NaN;;;;0 / 0;137974;2021-12-18 13:54:57:052
-6.3071;-10.524;4.794;-7.8338;4.6974;3.5626;4.7771;0.6463;-6.2282;38.23;-56.41;66.2;481.0;-18.19;41.51;-4.14;23.13;-29.49;58.44;0.0;;;;NaN;;;;0 / 0;137978;2021-12-18 13:54:57:056
-6.3071;-10.524;4.794;-7.8338;4.6974;3.5626;4.7771;0.6463;-6.2282;38.23;-56.41;66.2;762.0;-18.19;41.51;-4.14;23.13;-29.49;58.44;0.0;;;;NaN;;;;0 / 0;137979;2021-12-18 13:54:57:057
-1.6459;-7.851;2.159;-9.2751;1.9297;2.5426;-2.1268;-1.664;0.9982;-47.1;91.52;-45.63;237.0;-15.0;43.61;-4.69;12.23;-11.35;74.67;0.0;;;;NaN;;;;0 / 0;138208;2021-12-18 13:54:57:286
-2.448;-7.018;1.046;-8.3845;1.7957;-4.7549;-1.775;-3.8377;3.9748;-51.96;120.11;-52.31;559.0;-14.21;44.29;-0.79;356.85;8.37;107.17;0.0;;;;NaN;;;;0 / 0;138710;2021-12-18 13:54:57:788
-1.541;-8.428;-3.0079;-9.1028;1.6664;-3.2417;-1.1539;-0.6647;1.058;29.46;-127.15;-13.61;8.0;-15.41;45.11;-0.96;4.43;-6.53;67.88;0.0;;;;NaN;;;;0 / 0;139559;2021-12-18 13:54:58:637
-1.541;-8.428;-3.0079;-9.1028;1.6664;-3.2417;-1.1539;-0.6647;1.058;29.46;-127.15;-13.61;8.0;-15.41;45.11;-0.96;4.43;-6.53;67.88;0.0;;;;NaN;;;;0 / 0;139560;2021-12-18 13:54:58:638
-1.541;-8.428;-3.0079;-9.1028;1.6664;-3.2417;-1.1539;-0.6647;1.058;29.46;-127.15;-13.61;8.0;-15.41;45.11;-0.96;4.43;-6.53;67.88;0.0;;;;NaN;;;;0 / 0;139561;2021-12-18 13:54:58:639
-1.541;-8.428;-3.0079;-9.1028;1.6664;-3.2417;-1.1539;-0.6647;1.058;29.46;-127.15;-13.61;8.0;-15.41;45.11;-0.96;4.43;-6.53;67.88;0.0;;;;NaN;;;;0 / 0;139561;2021-12-18 13:54:58:639
-1.541;-8.428;-3.0079;-9.1028;1.6664;-3.2417;-1.1539;-0.6647;1.058;29.46;-127.15;-13.61;8.0;-15.41;45.11;-0.96;4.43;-6.53;67.88;0.0;;;;NaN;;;;0 / 0;139562;2021-12-18 13:54:58:640
-1.2941;-8.3389;0.213;-9.6869;1.5036;0.2394;-0.4842;-2.6878;2.2097;-0.74;16.17;12.01;17.0;-14.94;45.49;-1.86;1.59;-16.22;93.5;0.0;;;;NaN;;;;0 / 0;140135;2021-12-18 13:54:59:213
-1.2941;-8.3389;0.213;-9.6869;1.5036;0.2394;-0.4842;-2.6878;2.2097;-0.74;16.17;12.01;17.0;-14.94;45.49;-1.86;1.59;-16.22;93.5;0.0;;;;NaN;;;;0 / 0;140136;2021-12-18 13:54:59:214
-1.2941;-8.3389;0.213;-9.6869;1.5036;0.2394;-0.4842;-2.6878;2.2097;-0.74;16.17;12.01;17.0;-14.94;45.49;-1.86;1.59;-16.22;93.5;0.0;;;;NaN;;;;0 / 0;140137;2021-12-18 13:54:59:215
-1.2941;-8.3389;0.213;-9.6869;1.5036;0.2394;-0.4842;-2.6878;2.2097;-0.74;16.17;12.01;17.0;-14.94;45.49;-1.86;1.59;-16.22;93.5;0.0;;;;NaN;;;;0 / 0;140138;2021-12-18 13:54:59:216
-1.2941;-8.3389;0.213;-9.6869;1.5036;0.2394;-0.4842;-2.6878;2.2097;-0.74;16.17;12.01;17.0;-14.94;45.49;-1.86;1.59;-16.22;93.5;0.0;;;;NaN;;;;0 / 0;140138;2021-12-18 13:54:59:216
-1.2941;-8.3389;0.213;-9.6869;1.5036;0.2394;-0.4842;-2.6878;2.2097;-0.74;16.17;12.01;17.0;-14.94;45.49;-1.86;1.59;-16.22;93.5;0.0;;;;NaN;;;;0 / 0;140138;2021-12-18 13:54:59:216
-1.2941;-8.3389;0.213;-9.6869;1.5036;0.2394;-0.4842;-2.6878;2.2097;-0.74;16.17;12.01;17.0;-14.94;45.49;-1.86;1.59;-16.22;93.5;0.0;;;;NaN;;;;0 / 0;140139;2021-12-18 13:54:59:217
-1.2941;-8.3389;0.213;-9.6869;1.5036;0.2394;-0.4842;-2.6878;2.2097;-0.74;16.17;12.01;17.0;-14.94;45.49;-1.86;1.59;-16.22;93.5;0.0;;;;NaN;;;;0 / 0;140139;2021-12-18 13:54:59:217
-1.2941;-8.3389;0.213;-9.6869;1.5036;0.2394;-0.4842;-2.6878;2.2097;-0.74;16.17;12.01;17.0;-14.94;45.49;-1.86;1.59;-16.22;93.5;0.0;;;;NaN;;;;0 / 0;140140;2021-12-18 13:54:59:218
-1.2941;-8.3389;0.213;-9.6869;1.5036;0.2394;-0.4842;-2.6878;2.2097;-0.74;16.17;12.01;17.0;-14.94;45.49;-1.86;1.59;-16.22;93.5;0.0;;;;NaN;;;;0 / 0;140140;2021-12-18 13:54:59:218
-1.2941;-8.3389;0.213;-9.6869;1.5036;0.2394;-0.4842;-2.6878;2.2097;-0.74;16.17;12.01;17.0;-14.94;45.49;-1.86;1.59;-16.22;93.5;0.0;;;;NaN;;;;0 / 0;140141;2021-12-18 13:54:59:219
-1.2941;-8.3389;0.213;-9.6869;1.5036;0.2394;-0.4842;-2.6878;2.2097;-0.74;16.17;12.01;17.0;-14.94;45.49;-1.86;1.59;-16.22;93.5;0.0;;;;NaN;;;;0 / 0;140141;2021-12-18 13:54:59:219
-1.2941;-8.3389;0.213;-9.6869;1.5036;0.2394;-0.4842;-2.6878;2.2097;-0.74;16.17;12.01;17.0;-14.94;45.49;-1.86;1.59;-16.22;93.5;0.0;;;;NaN;;;;0 / 0;140141;2021-12-18 13:54:59:219
-1.2941;-8.3389;0.213;-9.6869;1.5036;0.2394;-0.4842;-2.6878;2.2097;-0.74;16.17;12.01;17.0;-14.94;45.49;-1.86;1.59;-16.22;93.5;0.0;;;;NaN;;;;0 / 0;140142;2021-12-18 13:54:59:220
-1.2941;-8.3389;0.213;-9.6869;1.5036;0.2394;-0.4842;-2.6878;2.2097;-0.74;16.17;12.01;17.0;-14.94;45.49;-1.86;1.59;-16.22;93.5;0.0;;;;NaN;;;;0 / 0;140142;2021-12-18 13:54:59:220
-1.2941;-8.3389;0.213;-9.6869;1.5036;0.2394;-0.4842;-2.6878;2.2097;-0.74;16.17;12.01;17.0;-14.94;45.49;-1.86;1.59;-16.22;93.5;0.0;;;;NaN;;;;0 / 0;140142;2021-12-18 13:54:59:220
-1.2941;-8.3389;0.213;-9.6869;1.5036;0.2394;-0.4842;-2.6878;2.2097;-0.74;16.17;12.01;17.0;-14.94;45.49;-1.86;1.59;-16.22;93.5;0.0;;;;NaN;;;;0 / 0;140143;2021-12-18 13:54:59:221
-1.2941;-8.3389;0.213;-9.6869;1.5036;0.2394;-0.4842;-2.6878;2.2097;-0.74;16.17;12.01;17.0;-14.94;45.49;-1.86;1.59;-16.22;93.5;0.0;;;;NaN;;;;0 / 0;140143;2021-12-18 13:54:59:221
-1.2941;-8.3389;0.213;-9.6869;1.5036;0.2394;-0.4842;-2.6878;2.2097;-0.74;16.17;12.01;17.0;-14.94;45.49;-1.86;1.59;-16.22;93.5;0.0;;;;NaN;;;;0 / 0;140144;2021-12-18 13:54:59:222
-3.0709;-7.293;-0.141;-7.9727;1.2737;5.5689;4.5438;6.4237;-7.9554;13.35;-136.36;9.4;0.0;-11.04;38.7;6.96;0.87;-7.46;55.07;0.0;;;;NaN;;;;0 / 0;140582;2021-12-18 13:54:59:660
-4.117;-9.751;4.473;-9.5002;2.1356;1.1684;2.2547;6.577;-2.5799;2.95;89.63;-13.53;3.0;-12.24;38.04;-4.44;4.77;2.63;93.7;0.0;;;;NaN;;;;0 / 0;141082;2021-12-18 13:55:00:160
1.443;-3.549;1.752;-9.6534;1.1875;1.2689;-3.9589;-4.2053;-0.1967;-33.87;58.75;-87.51;10.0;-12.84;37.09;2.46;357.1;13.24;89.89;0.0;;;;NaN;;;;0 / 0;141747;2021-12-18 13:55:00:825
-0.5719;-13.7989;-0.71;-9.7875;0.3974;-0.5028;-0.0695;4.0475;1.5536;-28.2;29.06;-10.86;10.0;-13.91;29.7;0.9;357.91;-6.95;82.51;0.0;;;;NaN;;;;0 / 0;141885;2021-12-18 13:55:00:963
-4.739;-12.741;-1.1629;-9.1602;3.3998;-0.8332;0.8545;0.9045;-0.5237;-49.41;111.62;-34.27;3.0;-15.41;28.44;-1.2;357.37;-11.78;98.09;0.0;;;;NaN;;;;0 / 0;142385;2021-12-18 13:55:01:463
-0.0859;-7.0271;-1.7951;-8.6574;3.7158;-2.7102;0.1536;-3.6256;2.4699;22.82;-48.01;-3.44;0.0;-18.24;28.5;-2.16;350.21;-22.27;107.38;0.0;;;;NaN;;;;0 / 0;143121;2021-12-18 13:55:02:199
-0.0859;-7.0271;-1.7951;-8.6574;3.7158;-2.7102;0.1536;-3.6256;2.4699;22.82;-48.01;-3.44;0.0;-18.24;28.5;-2.16;350.21;-22.27;107.38;0.0;;;;NaN;;;;0 / 0;143122;2021-12-18 13:55:02:200
-0.0859;-7.0271;-1.7951;-8.6574;3.7158;-2.7102;0.1536;-3.6256;2.4699;22.82;-48.01;-3.44;0.0;-18.24;28.5;-2.16;350.21;-22.27;107.38;0.0;;;;NaN;;;;0 / 0;143123;2021-12-18 13:55:02:201
1.113;-6.2209;0.239;-9.6486;-1.7142;0.3591;-5.4722;-2.3738;5.6113;19.66;-27.27;-23.82;9.0;-19.14;40.5;-9.84;32.45;-22.78;46.57;0.0;;;;NaN;;;;0 / 0;143554;2021-12-18 13:55:02:632
-3.303;-8.9231;0.596;-9.1794;3.3902;0.6033;0.6993;-1.6881;6.1967;71.21;-209.65;11.66;0.0;-17.7;42.54;-9.0;21.41;-3.95;61.43;0.0;;;;NaN;;;;0 / 0;144055;2021-12-18 13:55:03:133
-0.038;-8.827;1.1051;-9.663;0.1389;1.6712;-2.0786;-1.1582;1.7998;-28.58;115.94;0.1;4.0;-18.19;41.64;-11.1;5.51;-0.22;110.37;0.0;;;;NaN;;;;0 / 0;144595;2021-12-18 13:55:03:673
-1.065;-10.374;5.486;-8.6383;0.8859;4.5633;-1.9456;1.3945;-6.6468;65.89;-233.5;52.59;0.0;-15.71;44.34;-3.19;2.77;-28.21;88.16;0.0;;;;NaN;;;;0 / 0;144934;2021-12-18 13:55:04:012
-2.3209;-16.949;1.136;-9.8066;0.1341;0.0096;-1.507;5.3151;-0.2356;-4.1;98.96;-46.17;6.0;-14.64;41.81;-12.3;14.82;1.54;92.91;0.0;;;;NaN;;;;0 / 0;145434;2021-12-18 13:55:04:512
-1.905;-3.8959;-0.56;-8.7484;4.2521;-1.2546;-0.2156;-5.6084;-0.625;-27.89;-21.65;22.63;3.0;-14.89;43.44;2.16;349.74;-10.58;117.38;0.0;;;;NaN;;;;0 / 0;145935;2021-12-18 13:55:05:013
-2.352;-8.6531;-1.692;-9.6247;1.719;-0.7614;-0.9387;-0.9575;1.896;47.6;-196.07;1.43;0.0;-15.79;43.91;-2.29;8.3;-4.79;74.46;0.0;;;;NaN;;;;0 / 0;146464;2021-12-18 13:55:05:542
-2.352;-8.6531;-1.692;-9.6247;1.719;-0.7614;-0.9387;-0.9575;1.896;47.6;-196.07;1.43;0.0;-15.79;43.91;-2.29;8.3;-4.79;74.46;0.0;;;;NaN;;;;0 / 0;146465;2021-12-18 13:55:05:543
-2.352;-8.6531;-1.692;-9.6247;1.719;-0.7614;-0.9387;-0.9575;1.896;47.6;-196.07;1.43;0.0;-15.79;43.91;-2.29;8.3;-4.79;74.46;0.0;;;;NaN;;;;0 / 0;146466;2021-12-18 13:55:05:544
-2.352;-8.6531;-1.692;-9.6247;1.719;-0.7614;-0.9387;-0.9575;1.896;47.6;-196.07;1.43;0.0;-15.79;43.91;-2.29;8.3;-4.79;74.46;0.0;;;;NaN;;;;0 / 0;146466;2021-12-18 13:55:05:544
-1.333;-5.778;2.877;-9.5912;1.9489;0.6512;-0.1814;-1.9369;-0.1201;0.06;1.98;0.08;0.0;-16.01;43.2;-4.2;3.95;-10.1;94.52;0.0;;;;NaN;;;;0 / 0;146499;2021-12-18 13:55:05:577
2.036;-8.655;-8.7101;-9.0644;0.2107;-3.7445;-5.3488;-0.9053;5.9719;40.23;-98.43;97.43;0.0;-6.49;35.34;-13.14;15.63;-1.23;112.45;0.0;;;;NaN;;;;0 / 0;146999;2021-12-18 13:55:06:077
-1.6061;-10.8161;4.677;-9.6822;1.2354;0.9242;-2.1609;2.6819;-1.4143;23.44;-294.76;34.72;0.0;-13.09;35.29;6.9;359.11;-3.33;63.76;0.0;;;;NaN;;;;0 / 0;147498;2021-12-18 13:55:06:576
-7.41;-12.174;6.149;-7.6902;4.6831;3.8834;7.4238;4.7619;-4.7594;25.38;-26.54;53.46;0.0;-11.59;33.0;4.31;4.57;-28.53;63.21;0.0;;;;NaN;;;;0 / 0;147999;2021-12-18 13:55:07:077
2.946;-10.093;-7.7929;-7.5657;-2.2027;-5.8371;-3.1624;3.3759;14.7408;-58.1;104.73;39.82;3.0;-14.4;33.6;7.8;337.86;-9.73;117.47;0.0;;;;NaN;;;;0 / 0;148681;2021-12-18 13:55:07:759
-7.427;-10.199;5.5931;-6.8139;4.8985;5.0757;4.3187;-0.1732;-3.9785;57.06;-40.55;47.01;0.0;-20.1;38.51;-1.09;355.47;0.5;101.78;0.0;;;;NaN;;;;0 / 0;149000;2021-12-18 13:55:08:078
-5.198;-15.448;10.412;-7.513;5.7365;-2.6145;3.1118;7.6651;-7.9578;6.4;-34.7;13.55;0.0;-14.4;40.2;-0.54;348.34;-8.36;123.96;0.0;;;;NaN;;;;0 / 0;149497;2021-12-18 13:55:08:575
-1.005;-5.888;-0.423;-9.6438;0.9768;1.4892;-1.5751;1.092;-0.7969;52.64;-120.67;-1.46;0.0;-16.61;38.94;-6.54;14.33;-5.72;81.22;0.0;;;;NaN;;;;0 / 0;150037;2021-12-18 13:55:09:115
-1.005;-5.888;-0.423;-9.6438;0.9768;1.4892;-1.5751;1.092;-0.7969;52.64;-120.67;-1.46;0.0;-16.61;38.94;-6.54;14.33;-5.72;81.22;0.0;;;;NaN;;;;0 / 0;150039;2021-12-18 13:55:09:117
0.3851;-12.327;-1.503;-9.7923;0.3208;-0.4501;-2.6832;0.427;-0.2636;4.47;38.75;-49.39;0.0;-22.61;36.54;-0.06;14.59;-5.72;81.22;0.0;;;;NaN;;;;0 / 0;150171;2021-12-18 13:55:09:249
-1.098;-9.6289;-2.745;-9.6103;1.8196;0.7374;0.6519;-4.4881;4.7429;-80.54;97.21;-97.65;9.0;-20.04;39.41;8.4;349.42;-10.69;85.61;0.0;;;;NaN;;;;0 / 0;150671;2021-12-18 13:55:09:749
-0.9401;-5.711;-0.957;-9.6151;1.6089;-1.0391;-1.0218;-2.2779;0.0792;-18.62;-32.32;51.5;0.0;-19.5;42.49;3.36;7.76;-4.34;64.35;0.0;;;;NaN;;;;0 / 0;151420;2021-12-18 13:55:10:498
2.108;-4.0301;3.8921;-6.6032;-3.4476;6.3782;-4.9102;-5.2789;-2.5302;-5.47;32.92;3.66;5.0;-18.19;43.44;7.31;9.12;20.58;45.99;0.0;;;;NaN;;;;0 / 0;151670;2021-12-18 13:55:10:748
-1.201;-8.712;3.825;-8.9112;1.2258;3.9073;-0.8041;-0.4341;-0.6579;69.85;-132.1;45.97;0.0;-20.29;43.61;3.11;9.65;-19.06;52.56;0.0;;;;NaN;;;;0 / 0;152230;2021-12-18 13:55:11:308
3.2;-7.398;-4.227;-7.9775;-3.4381;-4.5538;-0.1931;-1.2307;0.2047;37.24;-56.91;65.37;3.0;-16.5;43.61;-4.44;8.16;-17.21;85.04;0.0;;;;NaN;;;;0 / 0;152670;2021-12-18 13:55:11:748
-1.881;-13.8709;2.666;-9.5481;1.2929;1.8292;-1.2752;3.807;-2.7115;57.61;-223.77;38.86;0.0;-9.41;43.99;0.24;356.35;-16.04;87.26;0.0;;;;NaN;;;;0 / 0;153173;2021-12-18 13:55:12:251
-7.7929;-10.7779;8.676;-7.173;5.0996;4.3287;6.1836;1.3226;-6.7221;31.95;-72.64;67.89;24.0;-5.04;40.44;-12.66;21.16;-31.33;58.89;0.0;;;;NaN;;;;0 / 0;153671;2021-12-18 13:55:12:749
-2.0291;-3.446;1.7951;-8.1307;1.1444;5.363;0.2454;-4.6158;-2.7636;-9.22;-56.54;9.26;0.0;-5.94;44.04;-8.29;13.57;-25.2;76.08;0.0;;;;NaN;;;;0 / 0;154171;2021-12-18 13:55:13:249
-2.64;-10.895;1.8881;-9.5577;2.1691;-0.3352;1.4222;2.6597;0.5725;1.47;108.09;-37.19;92.0;-6.19;36.49;-27.0;36.98;-4.73;93.93;0.0;;;;NaN;;;;0 / 0;154670;2021-12-18 13:55:13:748
