sep=;
ACCELEROMETER X (m/s²);ACCELEROMETER Y (m/s²);ACCELEROMETER Z (m/s²);GRAVITY X (m/s²);GRAVITY Y (m/s²);GRAVITY Z (m/s²);LINEAR ACCELERATION X (m/s²);LINEAR ACCELERATION Y (m/s²);LINEAR ACCELERATION Z (m/s²);MAGNETIC FIELD X (μT);MAGNETIC FIELD Y (μT);MAGNETIC FIELD Z (μT);ORIENTATION Z (azimuth °);ORIENTATION X (pitch °);ORIENTATION Y (roll °);PROXIMITY (m);LOCATION Latitude : ;LOCATION Longitude : ;LOCATION Altitude ( m);LOCATION Altitude-google ( m);LOCATION Speed ( Kmh);LOCATION Accuracy ( m);LOCATION ORIENTATION (°);Satellites in range;Time since start in ms ;YYYY-MO-DD HH-MI-SS_SSS
2.108;6.048;8.949;1.0472;6.0482;7.6481;-0.7625;-0.2507;-3.1579;-26.64;-18.71;-23.89;85.49;-38.71;-6.18;5.0;;;;NaN;;;;0 / 0;30;2022-01-06 16:19:12:643
-0.21;7.4891;11.0531;1.0983;6.2515;7.4755;2.5377;-3.4968;-0.4214;-21.3;-22.2;-26.1;89.37;-37.52;-11.13;5.0;;;;NaN;;;;0 / 0;529;2022-01-06 16:19:13:142
2.132;4.119;13.22;0.1654;5.8669;7.8564;1.6323;-0.9756;-4.5317;-19.56;-23.4;-28.99;92.06;-36.71;-2.09;5.0;;;;NaN;;;;0 / 0;1030;2022-01-06 16:19:13:643
-3.403;7.889;8.478;-0.9711;4.2494;8.7847;3.5658;-2.2596;-3.4562;-7.69;-29.64;-29.7;142.19;-25.68;6.31;5.0;;;;NaN;;;;0 / 0;1529;2022-01-06 16:19:14:142
-6.374;5.531;12.908;-4.443;4.6529;7.4014;2.7552;0.0242;4.7231;-0.71;-27.6;-34.44;119.85;-29.19;30.55;5.0;;;;NaN;;;;0 / 0;2029;2022-01-06 16:19:14:642
0.311;-0.483;11.0441;-2.4438;2.1767;9.2445;-2.2294;2.4959;-4.8886;-17.34;-8.7;-40.01;89.15;-16.04;17.93;5.0;;;;NaN;;;;0 / 0;2529;2022-01-06 16:19:15:142
-0.2171;3.521;11.01;-1.8819;2.0379;9.4062;-2.059;-1.4217;0.9752;-17.94;-16.5;-36.54;109.55;-11.99;11.31;5.0;;;;NaN;;;;0 / 0;3030;2022-01-06 16:19:15:643
-1.208;5.9741;6.647;0.5147;4.0657;8.9093;1.6384;-1.7355;2.1897;-12.36;-22.86;-35.89;120.11;-24.49;-3.31;5.0;;;;NaN;;;;0 / 0;3529;2022-01-06 16:19:16:142
-0.684;6.096;7.568;-0.5679;5.1741;8.3112;-0.4045;-0.8461;1.215;-8.59;-28.09;-32.34;124.83;-31.03;4.22;5.0;;;;NaN;;;;0 / 0;4029;2022-01-06 16:19:16:642
-1.548;5.7161;5.313;-0.5468;5.5712;8.0519;0.6593;1.0423;1.704;-9.41;-32.21;-29.04;133.12;-34.29;4.55;5.0;;;;NaN;;;;0 / 0;4529;2022-01-06 16:19:17:142
-1.4839;5.7041;6.893;-1.7318;5.5344;7.9083;-1.0014;0.2666;2.6241;-11.59;-34.69;-31.56;124.75;-33.92;13.3;5.0;;;;NaN;;;;0 / 0;5029;2022-01-06 16:19:17:642
0.3971;4.5911;6.24;-0.6624;5.9295;7.7828;0.686;1.8843;3.4516;-10.99;-34.69;-30.66;125.7;-37.2;4.86;5.0;;;;NaN;;;;0 / 0;5529;2022-01-06 16:19:18:142
-0.928;4.43;7.145;-1.8889;4.0445;8.7318;-0.9764;0.0946;2.6026;-8.46;-31.09;-34.14;134.0;-25.53;11.93;5.0;;;;NaN;;;;0 / 0;6030;2022-01-06 16:19:18:643
-2.4431;1.5791;8.322;-0.9472;4.2449;8.7894;0.837;2.2155;1.7477;-9.9;-29.81;-34.91;127.65;-28.04;6.33;5.0;;;;NaN;;;;0 / 0;6530;2022-01-06 16:19:19:143
-3.3821;1.2611;8.1161;-2.8981;2.8553;8.9229;0.4197;1.5048;0.8298;-4.2;-26.81;-37.8;139.1;-18.46;16.62;5.0;;;;NaN;;;;0 / 0;7029;2022-01-06 16:19:19:642
-0.653;4.638;3.848;-1.5185;3.752;8.9324;-2.3971;-0.4591;-0.7285;-16.69;-30.3;-30.3;128.88;-21.0;13.49;5.0;;;;NaN;;;;0 / 0;7529;2022-01-06 16:19:20:142
-1.148;4.5161;6.948;-2.0713;5.2469;8.0219;-1.7666;0.7212;1.8305;-15.06;-34.31;-26.7;128.2;-32.35;14.48;5.0;;;;NaN;;;;0 / 0;8029;2022-01-06 16:19:20:642
0.548;3.3551;6.261;-0.9158;5.9798;7.7184;-0.8323;1.5858;5.0432;-16.14;-31.39;-30.06;113.99;-39.29;9.91;5.0;;;;NaN;;;;0 / 0;8530;2022-01-06 16:19:21:143
-1.902;1.8071;8.033;-2.625;3.0491;8.9433;1.2978;0.8042;0.1743;-12.49;-27.24;-35.21;127.28;-18.11;16.36;5.0;;;;NaN;;;;0 / 0;9029;2022-01-06 16:19:21:642
0.969;2.441;8.808;-0.7162;4.4943;8.6867;-2.0919;1.6613;0.6779;-22.31;-25.2;-31.74;109.02;-27.31;6.91;5.0;;;;NaN;;;;0 / 0;9529;2022-01-06 16:19:22:142
-1.388;1.7711;8.633;-1.4373;3.6374;8.993;-0.5383;1.7986;-0.5549;-17.46;-19.26;-37.74;98.29;-23.68;7.78;5.0;;;;NaN;;;;0 / 0;10030;2022-01-06 16:19:22:643
0.828;0.864;14.306;-0.8913;3.716;9.0315;-1.0275;3.4436;-9.0291;-22.31;-18.49;-35.21;100.93;-21.45;7.21;5.0;;;;NaN;;;;0 / 0;10530;2022-01-06 16:19:23:143
0.287;4.442;7.781;-0.3063;4.2468;8.8341;-0.6091;-0.1624;1.0413;-21.41;-21.06;-34.91;105.81;-22.97;0.38;5.0;;;;NaN;;;;0 / 0;11029;2022-01-06 16:19:23:642
2.396;5.766;11.7641;0.9094;5.0265;8.3712;0.4327;-0.1901;-2.5659;-23.04;-25.8;-28.99;109.21;-26.78;-4.13;5.0;;;;NaN;;;;0 / 0;11529;2022-01-06 16:19:24:142
-0.299;4.449;18.749;0.5708;5.5504;8.0646;1.572;0.1128;-2.4743;-18.49;-30.54;-28.2;118.96;-32.77;-8.64;5.0;;;;NaN;;;;0 / 0;12029;2022-01-06 16:19:24:642
1.955;6.209;10.929;0.3831;4.3442;8.7836;-1.5646;-1.8531;-2.1399;-19.31;-27.79;-31.86;120.43;-24.59;0.41;5.0;;;;NaN;;;;0 / 0;12530;2022-01-06 16:19:25:143
-2.154;5.184;6.893;0.5384;4.713;8.583;1.443;-0.4826;-2.4161;-14.94;-31.91;-30.54;134.36;-28.72;-3.59;5.0;;;;NaN;;;;0 / 0;13029;2022-01-06 16:19:25:642
-0.004;3.93;11.2901;0.1387;3.369;9.2087;-0.3771;-0.9329;-1.4361;-18.54;-26.59;-34.44;126.36;-19.18;1.06;5.0;;;;NaN;;;;0 / 0;13529;2022-01-06 16:19:26:142
0.4571;3.597;12.4781;0.1322;2.9074;9.3648;-0.2644;-0.7083;-2.6072;-14.81;-28.44;-34.5;138.83;-17.25;-0.81;5.0;;;;NaN;;;;0 / 0;14029;2022-01-06 16:19:26:642
3.231;4.217;8.648;0.8845;2.4473;9.4551;-1.8492;-1.8343;1.5023;-21.96;-26.89;-30.19;134.08;-12.52;-3.31;5.0;;;;NaN;;;;0 / 0;14529;2022-01-06 16:19:27:142
1.737;3.339;10.134;1.9253;3.3983;8.9953;0.7744;-0.5818;2.1736;-19.31;-28.44;-29.81;140.12;-20.28;-12.08;5.0;;;;NaN;;;;0 / 0;15030;2022-01-06 16:19:27:643
1.716;5.136;9.1721;0.9919;2.7831;9.351;-0.3838;-1.7252;1.2877;-17.76;-27.36;-31.69;141.42;-15.7;-8.03;5.0;;;;NaN;;;;0 / 0;15529;2022-01-06 16:19:28:142
0.902;4.557;6.833;1.3616;3.2542;9.1502;0.6449;-0.2265;3.326;-12.79;-32.04;-27.24;157.78;-19.17;-9.25;5.0;;;;NaN;;;;0 / 0;16030;2022-01-06 16:19:28:643
-0.318;3.765;7.7381;-0.3066;3.8759;9.003;-0.3933;0.5922;3.4418;-7.31;-31.86;-26.64;156.59;-24.63;1.62;5.0;;;;NaN;;;;0 / 0;16529;2022-01-06 16:19:29:142
1.364;2.913;7.01;0.8142;3.7812;9.0117;-0.2299;1.7631;-1.5284;-9.71;-31.61;-24.66;156.36;-25.09;-4.72;5.0;;;;NaN;;;;0 / 0;17029;2022-01-06 16:19:29:642
0.404;3.068;8.325;0.128;3.1294;9.2931;-0.2669;0.0648;0.971;-23.21;-32.51;-16.31;138.85;-18.61;-0.79;5.0;;;;NaN;;;;0 / 0;17529;2022-01-06 16:19:30:142
1.407;3.509;6.3551;0.3863;3.3574;9.2059;-0.6235;0.1062;2.816;-26.59;-21.0;-21.06;115.31;-19.7;-3.24;5.0;;;;NaN;;;;0 / 0;18030;2022-01-06 16:19:30:643
-2.0651;3.492;8.856;0.8827;4.2197;8.8082;2.2907;-0.3151;3.7699;-29.94;-16.61;-27.3;89.87;-26.73;-7.71;5.0;;;;NaN;;;;0 / 0;18529;2022-01-06 16:19:31:142
-0.4519;3.36;6.084;0.0216;5.2181;8.3031;0.9368;1.4816;1.8699;-27.36;-19.69;-27.96;93.01;-33.15;-0.08;5.0;;;;NaN;;;;0 / 0;19029;2022-01-06 16:19:31:642
-2.355;4.203;4.2341;-0.4877;5.4161;8.1608;2.2636;1.1121;3.094;-24.36;-24.41;-30.54;97.74;-33.24;1.14;5.0;;;;NaN;;;;0 / 0;19530;2022-01-06 16:19:32:143
1.263;5.177;9.1031;0.0899;5.8328;7.883;0.0218;0.8614;0.1738;-27.96;-22.44;-30.66;92.9;-36.65;3.19;5.0;;;;NaN;;;;0 / 0;20029;2022-01-06 16:19:32:642
-1.074;4.389;6.9;0.1836;5.9285;7.8095;0.9689;1.2642;-3.7864;-25.61;-28.14;-27.6;100.44;-37.05;-4.05;5.0;;;;NaN;;;;0 / 0;20530;2022-01-06 16:19:33:143
0.921;6.3431;12.389;0.2313;6.0892;7.6836;-0.764;0.4104;-4.0609;-30.3;-24.6;-27.36;97.43;-36.93;0.58;5.0;;;;NaN;;;;0 / 0;21029;2022-01-06 16:19:33:642
-1.8139;4.5161;13.689;0.8267;6.1046;7.6302;1.01;-1.0456;-3.8754;-27.0;-25.99;-28.44;95.47;-36.3;-7.76;5.0;;;;NaN;;;;0 / 0;21529;2022-01-06 16:19:34:142
2.202;7.152;9.653;-0.5779;5.2762;8.2461;-1.9991;-1.6125;-1.3215;-27.36;-22.31;-31.8;96.93;-31.15;5.24;5.0;;;;NaN;;;;0 / 0;22029;2022-01-06 16:19:34:642
-0.318;7.568;9.399;0.5942;4.6614;8.6075;2.0652;-2.067;-0.954;-24.9;-23.21;-33.06;95.58;-27.16;-4.56;5.0;;;;NaN;;;;0 / 0;22529;2022-01-06 16:19:35:142
-0.114;6.752;10.0361;0.0453;4.9432;8.4696;0.0317;-1.4856;-2.74;-28.44;-19.61;-32.21;97.23;-27.38;3.12;5.0;;;;NaN;;;;0 / 0;23029;2022-01-06 16:19:35:642
-0.023;6.8171;8.799;0.8391;4.4748;8.6857;0.628;-1.2361;1.7167;-26.4;-22.5;-30.3;97.42;-27.51;-6.04;5.0;;;;NaN;;;;0 / 0;23530;2022-01-06 16:19:36:143
1.4501;5.864;8.0351;0.2145;4.9164;8.4825;-0.4839;0.0648;1.8889;-27.49;-21.54;-29.46;99.0;-30.09;-1.45;5.0;;;;NaN;;;;0 / 0;24030;2022-01-06 16:19:36:643
1.1321;4.8941;7.985;1.4805;4.7673;8.441;0.4287;0.9987;1.289;-27.66;-19.2;-31.61;86.86;-31.59;-8.8;5.0;;;;NaN;;;;0 / 0;24530;2022-01-06 16:19:37:143
0.423;2.9531;7.353;-0.8626;3.1469;9.2479;-0.7517;0.741;3.0834;-26.81;-15.0;-37.01;88.97;-25.31;2.2;5.0;;;;NaN;;;;0 / 0;25029;2022-01-06 16:19:37:642
0.497;3.509;5.78;0.7793;3.3618;9.1794;0.2808;0.3706;2.915;-29.64;-17.64;-33.79;98.38;-20.77;-4.03;5.0;;;;NaN;;;;0 / 0;25530;2022-01-06 16:19:38:143
0.0041;2.898;7.3121;-0.6101;3.8783;8.9865;0.1935;2.0804;1.291;-27.49;-18.3;-35.46;96.71;-23.3;3.88;5.0;;;;NaN;;;;0 / 0;26029;2022-01-06 16:19:38:642
0.0281;2.613;6.185;0.5992;4.0996;8.8884;-0.45;1.4003;0.422;-29.51;-18.54;-33.0;93.88;-26.08;-2.86;5.0;;;;NaN;;;;0 / 0;26529;2022-01-06 16:19:39:142
0.2081;2.5181;8.5901;-0.4366;3.9209;8.9781;-0.7176;1.327;0.4311;-26.21;-19.5;-35.34;95.79;-24.94;1.25;5.0;;;;NaN;;;;0 / 0;27030;2022-01-06 16:19:39:643
1.6181;2.8841;7.568;-0.3861;2.7903;9.3934;-1.5624;0.3787;1.977;-27.9;-16.8;-36.24;95.12;-18.42;2.06;5.0;;;;NaN;;;;0 / 0;27529;2022-01-06 16:19:40:142
-0.8111;2.865;7.6781;-0.0471;3.9584;8.9721;2.3365;0.1992;0.5411;-25.14;-23.46;-30.54;111.3;-23.39;-0.78;5.0;;;;NaN;;;;0 / 0;28029;2022-01-06 16:19:40:642
0.438;4.674;11.1971;0.2613;4.5782;8.6684;-2.5989;-0.6384;-4.3799;-28.8;-18.84;-25.74;99.66;-27.5;0.54;5.0;;;;NaN;;;;0 / 0;28530;2022-01-06 16:19:41:143
-2.673;3.638;8.9591;0.2557;4.7708;8.5641;0.0346;1.4478;-9.145;-24.54;-15.66;-28.39;89.59;-28.71;-3.7;5.0;;;;NaN;;;;0 / 0;29029;2022-01-06 16:19:41:642
1.1921;4.631;12.344;-0.1129;4.8824;8.5041;-1.2978;0.2514;-3.8359;-34.31;-9.54;-31.09;81.15;-28.73;2.25;5.0;;;;NaN;;;;0 / 0;29529;2022-01-06 16:19:42:142
0.5981;5.852;14.495;0.4236;4.9234;8.4706;-0.1165;-0.9625;-5.9991;-39.49;-18.41;-36.6;84.02;-27.22;-4.85;5.0;;;;NaN;;;;0 / 0;30029;2022-01-06 16:19:42:642
0.938;8.5301;12.2501;-0.2782;4.7683;8.5648;-1.1335;-3.5859;-3.776;-46.01;-24.54;-36.71;96.27;-26.12;3.31;5.0;;;;NaN;;;;0 / 0;30529;2022-01-06 16:19:43:142
0.404;5.55;11.202;0.8483;4.9071;8.4481;0.8197;-1.5623;-0.3851;-40.09;-33.19;-30.19;106.24;-28.13;-5.68;5.0;;;;NaN;;;;0 / 0;31029;2022-01-06 16:19:43:642
0.45;5.5361;9.8681;0.1002;4.4042;8.7615;-0.6856;-1.6274;1.0699;-31.2;-27.79;-25.86;114.63;-23.9;0.84;5.0;;;;NaN;;;;0 / 0;31530;2022-01-06 16:19:44:143
-0.035;5.4641;9.2771;0.9606;4.0045;8.9001;1.2058;-1.5799;-0.103;-23.21;-24.49;-25.39;119.66;-23.02;-6.81;5.0;;;;NaN;;;;0 / 0;32029;2022-01-06 16:19:44:642
-0.806;4.4951;9.134;-0.5897;3.6901;9.0667;-1.3786;-0.2478;3.6539;-22.09;-17.89;-28.56;105.22;-21.87;4.68;5.0;;;;NaN;;;;0 / 0;32529;2022-01-06 16:19:45:142
0.2081;3.245;6.06;0.6418;3.1235;9.2737;1.4999;0.8625;2.1503;-22.99;-15.71;-30.0;100.87;-20.42;-3.54;5.0;;;;NaN;;;;0 / 0;33029;2022-01-06 16:19:45:642
0.548;2.913;6.857;-1.0679;2.2386;9.4878;-2.3755;-1.1665;3.7673;-26.94;-13.74;-31.39;103.52;-13.2;6.42;5.0;;;;NaN;;;;0 / 0;33530;2022-01-06 16:19:46:143
-0.0311;1.6271;7.415;1.0208;2.7397;9.3607;1.0282;1.0904;1.9617;-27.11;-14.46;-30.49;100.32;-16.22;-6.22;5.0;;;;NaN;;;;0 / 0;34029;2022-01-06 16:19:46:642
-0.019;1.3421;6.999;-0.4653;2.4139;9.4935;-0.4994;1.0684;1.5976;-21.06;-13.69;-34.26;98.36;-17.58;0.41;5.0;;;;NaN;;;;0 / 0;34530;2022-01-06 16:19:47:143
0.459;1.268;6.75;0.6705;2.2718;9.5163;-0.524;0.8888;3.655;-24.3;-13.99;-32.7;102.48;-14.55;-1.93;5.0;;;;NaN;;;;0 / 0;35029;2022-01-06 16:19:47:642
-0.414;1.065;7.784;-0.6576;2.0371;9.5702;-0.249;0.9747;1.7929;-26.81;-11.76;-36.6;98.6;-11.99;3.93;5.0;;;;NaN;;;;0 / 0;35530;2022-01-06 16:19:48:143
-0.081;2.027;6.807;0.2889;2.3538;9.5156;-0.6891;-0.3746;3.4365;-34.26;-11.76;-33.96;95.62;-13.89;-1.74;5.0;;;;NaN;;;;0 / 0;36030;2022-01-06 16:19:48:643
-0.402;2.3291;8.198;-0.2548;3.1701;9.2767;0.004;0.446;1.8263;-37.61;-16.09;-36.96;94.45;-19.36;0.77;5.0;;;;NaN;;;;0 / 0;36529;2022-01-06 16:19:49:142
2.628;1.242;9.191;0.1163;2.4739;9.4888;-2.349;1.4387;0.5947;-44.94;-23.94;-36.41;106.33;-15.94;-0.02;5.0;;;;NaN;;;;0 / 0;37029;2022-01-06 16:19:49:642
-0.306;1.134;9.198;-0.1182;2.5031;9.4811;0.1427;1.3147;0.3019;-26.29;-42.11;-26.46;139.05;-15.32;-0.1;5.0;;;;NaN;;;;0 / 0;37529;2022-01-06 16:19:50:142
0.83;1.1531;9.701;0.4899;2.5599;9.454;-1.6978;-2.1774;1.9885;-11.34;-39.84;-10.26;163.88;-13.45;-2.56;5.0;;;;NaN;;;;0 / 0;38030;2022-01-06 16:19:50:643
-0.5689;-0.153;16.4171;0.0768;1.5005;9.6909;1.7329;-0.1184;-0.4145;11.89;-22.14;-10.91;211.63;-9.43;-1.53;5.0;;;;NaN;;;;0 / 0;38529;2022-01-06 16:19:51:142
0.921;2.5871;8.8541;-0.1693;1.3454;9.7125;-1.0445;-1.175;0.8522;7.5;-1.61;-17.04;269.32;-6.33;1.73;5.0;;;;NaN;;;;0 / 0;39029;2022-01-06 16:19:51:642
0.749;3.161;11.5031;0.302;1.3665;9.7063;1.2695;-2.0465;-0.1938;-12.49;4.44;-29.46;54.02;-8.01;-1.78;5.0;;;;NaN;;;;0 / 0;39530;2022-01-06 16:19:52:143
3.1061;-0.629;12.645;0.4211;1.0858;9.7373;-3.4033;1.2571;-5.7749;-29.34;5.16;-28.74;73.3;-6.36;-2.48;5.0;;;;NaN;;;;0 / 0;40029;2022-01-06 16:19:52:642
1.364;0.8921;17.7221;1.9971;0.5955;9.5827;1.2273;-2.2338;-4.1571;-33.06;-4.44;-30.9;97.51;-1.07;-13.24;5.0;;;;NaN;;;;0 / 0;40529;2022-01-06 16:19:53:142
0.584;3.7721;9.809;0.6397;2.2046;9.5342;0.1097;-1.739;-0.2346;-29.59;-16.56;-31.39;117.64;-5.77;-5.62;5.0;;;;NaN;;;;0 / 0;41030;2022-01-06 16:19:53:643
1.2491;1.029;12.054;0.9207;2.2205;9.5075;0.3386;-0.3065;1.7264;-31.56;-12.54;-32.04;99.38;-13.09;-5.53;5.0;;;;NaN;;;;0 / 0;41529;2022-01-06 16:19:54:142
3.3461;1.524;10.158;1.6357;0.2059;9.6671;-0.2212;-0.5943;1.9944;-36.19;-3.9;-30.11;96.09;-1.2;-9.6;5.0;;;;NaN;;;;0 / 0;42029;2022-01-06 16:19:54:642
1.0001;0.9281;10.632;1.4673;0.3242;9.6908;0.5979;-0.5958;-0.953;-28.5;-8.04;-35.89;111.41;-3.24;-14.17;5.0;;;;NaN;;;;0 / 0;42529;2022-01-06 16:19:55:142
1.505;2.549;7.566;-0.0398;-0.1743;9.805;-0.9387;-2.7621;2.559;-29.51;-8.21;-36.06;106.35;1.77;1.55;5.0;;;;NaN;;;;0 / 0;43029;2022-01-06 16:19:55:642
-0.198;1.7441;6.3881;0.903;0.391;9.7572;1.5332;-1.6939;4.2367;-25.74;-12.06;-37.5;111.86;-2.32;-5.36;5.0;;;;NaN;;;;0 / 0;43529;2022-01-06 16:19:56:142
0.1241;1.608;7.5371;-1.0402;1.4677;9.6402;-1.1612;-0.1372;2.108;-21.54;-16.09;-36.66;112.43;-8.61;6.16;5.0;;;;NaN;;;;0 / 0;44029;2022-01-06 16:19:56:642
-0.5621;1.7111;5.931;-0.0716;0.9994;9.7553;1.3642;-0.2404;3.8342;-20.46;-16.31;-34.5;121.19;-6.41;-0.01;5.0;;;;NaN;;;;0 / 0;44529;2022-01-06 16:19:57:142
-1.8949;0.303;6.089;-0.3883;1.5592;9.6741;1.485;1.3088;3.5769;-16.56;-13.09;-35.16;107.85;-11.29;3.18;5.0;;;;NaN;;;;0 / 0;45029;2022-01-06 16:19:57:642
-0.701;1.163;7.8671;0.0132;1.5195;9.6882;-1.1625;-0.4268;3.9335;-19.74;-9.66;-34.91;102.58;-8.91;-0.08;5.0;;;;NaN;;;;0 / 0;45530;2022-01-06 16:19:58:143
-1.0001;1.0361;7.9781;-0.3373;1.5488;9.6777;0.5889;0.432;1.4374;-21.06;-6.96;-36.9;93.05;-9.09;2.0;5.0;;;;NaN;;;;0 / 0;46029;2022-01-06 16:19:58:642
0.555;1.4621;8.0351;0.1914;1.5941;9.6743;-1.2501;-0.3168;0.6315;-24.11;-6.96;-36.66;91.24;-10.25;0.92;5.0;;;;NaN;;;;0 / 0;46530;2022-01-06 16:19:59:143
0.6461;1.7591;9.119;-0.6975;1.9754;9.5803;1.0978;0.4897;1.3021;-23.76;-8.94;-38.04;92.08;-12.38;3.29;5.0;;;;NaN;;;;0 / 0;47030;2022-01-06 16:19:59:643
-1.314;-1.014;10.383;0.111;2.0844;9.5819;0.1104;2.4327;0.7749;-25.99;-10.09;-36.24;93.74;-12.88;-0.42;5.0;;;;NaN;;;;0 / 0;47529;2022-01-06 16:20:00:142
-3.066;0.519;4.7651;0.3054;2.0085;9.5939;0.08;1.9094;-7.3545;-25.09;-11.46;-37.2;95.65;-12.78;-2.53;5.0;;;;NaN;;;;0 / 0;48029;2022-01-06 16:20:00:642
1.8191;0.8591;11.0891;0.064;1.9301;9.6146;-2.2106;0.5544;0.3936;-27.3;-9.79;-36.66;95.31;-11.35;-0.38;5.0;;;;NaN;;;;0 / 0;48529;2022-01-06 16:20:01:142
-0.852;2.6111;10.685;0.0199;1.8161;9.637;0.7857;-0.752;-1.0479;-23.51;-11.7;-38.51;100.8;-10.67;-0.12;5.0;;;;NaN;;;;0 / 0;49030;2022-01-06 16:20:01:643
2.1971;2.367;9.395;-0.2909;2.0664;9.5821;-0.413;0.747;-4.9856;-26.76;-9.24;-37.69;95.67;-9.5;4.24;5.0;;;;NaN;;;;0 / 0;49530;2022-01-06 16:20:02:143
-1.6871;2.2691;13.878;-0.4662;1.6157;9.6614;1.2661;-0.6905;-4.1941;-21.84;-11.21;-39.79;100.53;-9.48;2.76;5.0;;;;NaN;;;;0 / 0;50029;2022-01-06 16:20:02:642
-2.501;1.752;13.418;-1.3291;1.7841;9.551;0.7427;-0.3003;-2.3454;-21.96;-10.01;-39.96;98.28;-9.28;7.82;5.0;;;;NaN;;;;0 / 0;50529;2022-01-06 16:20:03:142
-1.098;2.568;12.884;-0.5151;1.8705;9.6128;0.5745;-0.6902;-3.2584;-22.31;-9.96;-40.14;98.46;-9.36;2.31;5.0;;;;NaN;;;;0 / 0;51030;2022-01-06 16:20:03:643
0.078;3.018;13.7081;-1.0812;1.6554;9.6053;-1.1105;-1.6175;-2.5693;-23.51;-9.0;-39.49;97.62;-8.09;7.64;5.0;;;;NaN;;;;0 / 0;51530;2022-01-06 16:20:04:143
-0.1;3.288;9.4571;0.0792;1.543;9.6842;0.4773;-1.2289;-2.2389;-22.09;-10.26;-40.26;99.31;-9.05;-0.47;5.0;;;;NaN;;;;0 / 0;52029;2022-01-06 16:20:04:642
1.127;4.2341;10.376;-1.081;1.3819;9.6484;-0.3562;-0.5415;2.7849;-22.56;-9.24;-39.96;97.65;-8.1;6.39;5.0;;;;NaN;;;;0 / 0;52529;2022-01-06 16:20:05:142
-0.057;2.898;7.259;0.2707;1.4319;9.6978;0.2673;-1.2752;3.2705;-23.76;-11.51;-38.1;104.02;-8.2;1.15;5.0;;;;NaN;;;;0 / 0;53029;2022-01-06 16:20:05:642
-0.0551;3.284;7.02;-1.0375;1.7986;9.5843;-1.0103;-0.6122;2.2838;-22.39;-13.01;-38.1;103.05;-10.98;6.08;5.0;;;;NaN;;;;0 / 0;53529;2022-01-06 16:20:06:142
-0.6191;1.9001;7.602;0.0303;1.6768;9.6622;1.2488;0.2372;3.0283;-24.41;-12.9;-37.26;101.89;-11.58;0.89;5.0;;;;NaN;;;;0 / 0;54029;2022-01-06 16:20:06:642
-0.174;1.689;5.5481;-0.8912;1.9408;9.5713;-0.6772;0.5383;3.5896;-23.04;-11.89;-38.7;98.87;-13.76;4.02;5.0;;;;NaN;;;;0 / 0;54530;2022-01-06 16:20:07:143
-0.696;1.74;6.185;-0.0812;1.9928;9.6017;-1.1143;0.0104;2.5166;-24.54;-12.24;-37.69;99.13;-11.72;0.48;5.0;;;;NaN;;;;0 / 0;55029;2022-01-06 16:20:07:642
-0.768;0.818;5.522;-1.0612;2.1229;9.5151;-0.4303;1.3951;1.2639;-21.24;-14.1;-38.51;100.51;-14.18;4.68;5.0;;;;NaN;;;;0 / 0;55529;2022-01-06 16:20:08:142
0.404;1.9601;8.609;-0.3017;2.0774;9.5793;-2.2445;-0.024;2.2519;-24.24;-11.94;-38.7;98.19;-12.23;1.8;5.0;;;;NaN;;;;0 / 0;56029;2022-01-06 16:20:08:642
0.294;1.589;6.113;-1.1471;2.496;9.4141;-0.3721;0.8585;0.7663;-22.8;-14.29;-38.21;99.15;-16.46;4.81;5.0;;;;NaN;;;;0 / 0;56529;2022-01-06 16:20:09:142
2.151;2.3861;6.848;-0.2068;2.6217;9.4475;0.0682;2.6091;-0.5469;-26.89;-13.61;-35.7;94.34;-17.24;3.11;5.0;;;;NaN;;;;0 / 0;57030;2022-01-06 16:20:09:643
0.203;1.7591;8.9111;-0.3761;2.8894;9.3638;1.3537;1.5001;0.7012;-23.51;-14.59;-38.16;95.87;-18.16;0.92;5.0;;;;NaN;;;;0 / 0;57529;2022-01-06 16:20:10:142
-0.643;-1.1771;12.5591;-0.1151;3.0048;9.3343;-1.0617;3.6501;-5.3142;-27.71;-13.44;-35.64;92.92;-17.84;0.71;5.0;;;;NaN;;;;0 / 0;58029;2022-01-06 16:20:10:642
-0.136;2.903;14.2301;0.7816;3.2487;9.2198;0.8864;0.3735;-5.0075;-27.36;-17.59;-34.14;101.76;-19.35;-4.85;5.0;;;;NaN;;;;0 / 0;58529;2022-01-06 16:20:11:142
2.592;2.81;9.4781;0.7187;3.0889;9.2797;-1.7982;0.2752;-0.1896;-30.96;-12.71;-33.71;92.6;-18.1;-2.88;5.0;;;;NaN;;;;0 / 0;59030;2022-01-06 16:20:11:643
0.327;3.8051;14.033;0.5228;2.8677;9.3634;0.168;-0.5722;-4.0524;-28.31;-15.06;-34.86;99.41;-16.03;-4.58;5.0;;;;NaN;;;;0 / 0;59529;2022-01-06 16:20:12:142
0.512;2.8841;14.3831;0.0824;2.7325;9.4179;-0.4215;-0.1414;-4.9516;-30.0;-12.19;-34.86;95.16;-14.83;0.9;5.0;;;;NaN;;;;0 / 0;60029;2022-01-06 16:20:12:642
-0.768;3.264;12.566;0.2557;2.4461;9.4932;1.0184;-0.8091;-3.0647;-25.26;-13.39;-37.14;98.65;-11.93;-4.41;5.0;;;;NaN;;;;0 / 0;60529;2022-01-06 16:20:13:142
0.27;3.083;11.5541;-0.3045;2.1417;9.5651;-0.4925;-0.696;-2.04;-26.89;-11.51;-36.9;101.94;-9.57;3.28;5.0;;;;NaN;;;;0 / 0;61030;2022-01-06 16:20:13:643
-0.136;3.473;10.443;0.3097;2.5002;9.4775;0.5477;-0.6695;3.2307;-26.51;-13.69;-36.79;99.35;-13.19;-3.12;5.0;;;;NaN;;;;0 / 0;61530;2022-01-06 16:20:14:143
0.761;3.93;10.496;-0.9581;2.2888;9.4876;-1.5247;-1.2745;1.2799;-26.76;-11.59;-36.84;96.92;-13.5;5.77;5.0;;;;NaN;;;;0 / 0;62029;2022-01-06 16:20:14:642
-0.1099;3.461;7.224;0.7931;2.2483;9.5124;0.9509;-1.1441;1.5074;-27.11;-14.46;-36.36;103.79;-11.81;-4.35;5.0;;;;NaN;;;;0 / 0;62529;2022-01-06 16:20:15:142
0.1241;2.8931;6.177;-0.7262;1.9353;9.5863;-0.6323;-0.192;4.3005;-24.96;-14.4;-36.36;102.91;-12.5;3.43;5.0;;;;NaN;;;;0 / 0;63030;2022-01-06 16:20:15:643
0.45;3.255;6.3041;0.6426;2.0427;9.57;0.392;-1.2513;3.5482;-25.8;-12.71;-36.41;98.49;-13.77;-2.12;5.0;;;;NaN;;;;0 / 0;63530;2022-01-06 16:20:16:143
-0.5359;1.5821;5.943;-0.5536;2.2507;9.5288;0.0048;0.8342;2.9366;-23.34;-12.06;-38.29;97.86;-14.79;2.77;5.0;;;;NaN;;;;0 / 0;64030;2022-01-06 16:20:16:643
0.069;2.336;6.0821;0.5983;2.2084;9.536;1.0621;-0.0163;3.9212;-26.04;-11.81;-37.09;97.26;-13.01;-3.59;5.0;;;;NaN;;;;0 / 0;64529;2022-01-06 16:20:17:142
-0.3251;0.978;5.993;-0.8004;2.5823;9.4266;-0.6784;1.16;1.2535;-23.34;-13.56;-38.16;96.94;-16.45;3.28;5.0;;;;NaN;;;;0 / 0;65029;2022-01-06 16:20:17:642
-0.0139;1.6751;5.8091;0.5576;2.1801;9.545;-1.2378;0.0207;2.2003;-28.01;-9.24;-36.9;88.15;-14.57;-2.19;5.0;;;;NaN;;;;0 / 0;65529;2022-01-06 16:20:18:142
-0.864;1.268;8.3051;-0.1386;2.7686;9.4067;0.6577;1.471;1.1198;-24.49;-11.64;-39.06;91.4;-16.4;0.84;5.0;;;;NaN;;;;0 / 0;66030;2022-01-06 16:20:18:643
2.774;1.9481;8.0111;-0.0194;2.0034;9.5998;-1.9535;1.2135;1.3186;-26.16;-9.36;-37.91;89.24;-13.95;0.66;5.0;;;;NaN;;;;0 / 0;66530;2022-01-06 16:20:19:143
-1.8791;1.1321;5.61;-0.4793;2.5412;9.4595;0.8717;1.4994;-8.4324;-22.69;-12.96;-39.11;94.65;-15.97;1.74;5.0;;;;NaN;;;;0 / 0;67029;2022-01-06 16:20:19:642
2.561;3.164;12.662;-0.1762;2.605;9.4527;-1.9298;-1.3528;-0.0568;-26.64;-8.94;-38.59;93.72;-10.78;4.21;5.0;;;;NaN;;;;0 / 0;67529;2022-01-06 16:20:20:142
0.555;2.486;17.753;-0.3703;3.064;9.3084;-0.7789;-1.6895;-2.6912;-22.39;-15.41;-37.61;96.46;-18.21;2.28;5.0;;;;NaN;;;;0 / 0;68029;2022-01-06 16:20:20:642
1.5461;6.747;11.2451;0.3188;3.337;9.2159;-1.2725;-3.4461;-2.0045;-22.86;-16.31;-32.7;100.65;-19.06;-1.2;5.0;;;;NaN;;;;0 / 0;68529;2022-01-06 16:20:21:142
0.6;4.124;16.245;0.3495;3.5798;9.1232;3.2739;-1.5551;-6.3201;-20.1;-22.5;-32.46;116.63;-20.49;-3.67;5.0;;;;NaN;;;;0 / 0;69029;2022-01-06 16:20:21:642
-0.957;3.851;13.215;-0.1276;3.483;9.1664;0.8458;-0.3337;-4.0543;-19.44;-21.11;-34.26;113.97;-19.1;1.82;5.0;;;;NaN;;;;0 / 0;69529;2022-01-06 16:20:22:142
-0.753;2.465;11.037;-0.5436;3.1063;9.2858;2.1695;1.0723;-8.2201;-16.14;-22.2;-37.26;116.62;-17.31;0.91;5.0;;;;NaN;;;;0 / 0;70030;2022-01-06 16:20:22:643
-0.32;1.22;17.672;-0.7165;2.3231;9.5005;-0.3576;1.0876;-8.1561;-17.21;-19.8;-38.16;118.5;-13.7;4.31;5.0;;;;NaN;;;;0 / 0;70529;2022-01-06 16:20:23:142
1.067;3.219;12.243;-0.7352;2.3316;9.497;0.8008;1.0306;-2.2707;-12.79;-21.19;-37.99;130.34;-11.49;3.89;5.0;;;;NaN;;;;0 / 0;71029;2022-01-06 16:20:23:642
-1.184;0.3941;12.2171;-1.1663;1.0883;9.676;0.4849;1.1408;-6.204;-11.89;-19.26;-39.06;131.52;-6.3;7.09;5.0;;;;NaN;;;;0 / 0;71529;2022-01-06 16:20:24:142
0.675;1.1441;15.948;-0.4113;1.9437;9.6033;-1.6371;-0.3718;-1.3202;-15.19;-22.99;-36.49;136.98;-7.33;0.04;5.0;;;;NaN;;;;0 / 0;72029;2022-01-06 16:20:24:642
-3.808;2.7;13.1291;-0.2135;2.5302;9.4722;1.1894;-0.7387;-2.9904;-15.49;-23.51;-35.4;132.07;-14.95;1.29;5.0;;;;NaN;;;;0 / 0;72530;2022-01-06 16:20:25:143
-0.315;3.09;13.035;-1.0186;1.9535;9.556;1.7956;0.8164;-7.6621;-13.69;-23.16;-36.11;132.64;-11.46;4.86;5.0;;;;NaN;;;;0 / 0;73029;2022-01-06 16:20:25:642
2.415;4.55;9.387;-0.7546;2.2544;9.5141;0.2429;-1.0139;-1.8065;-17.94;-22.44;-34.61;128.73;-9.99;5.92;5.0;;;;NaN;;;;0 / 0;73529;2022-01-06 16:20:26:142
-1.998;0.818;11.685;-0.6126;1.9439;9.5925;0.232;1.4824;-9.3173;-19.01;-19.56;-36.24;120.9;-11.43;3.65;5.0;;;;NaN;;;;0 / 0;74029;2022-01-06 16:20:26:642
3.671;3.5111;10.778;-0.1677;1.9693;9.6054;-3.4093;-2.9477;0.221;-19.61;-22.31;-35.21;124.48;-11.88;1.72;5.0;;;;NaN;;;;0 / 0;74529;2022-01-06 16:20:27:142
-5.213;-0.222;18.189;-0.4488;2.2457;9.5355;5.6977;1.5387;-6.7197;-16.99;-23.51;-35.64;126.13;-13.59;-3.47;5.0;;;;NaN;;;;0 / 0;75029;2022-01-06 16:20:27:642
0.6461;0.9281;10.1891;0.3141;2.5179;9.4727;-1.1449;0.2135;-0.542;-20.64;-23.34;-33.71;123.86;-14.88;-1.9;5.0;;;;NaN;;;;0 / 0;75530;2022-01-06 16:20:28:143
-3.954;-0.481;10.67;-0.4277;1.941;9.6031;2.9502;2.4586;-6.1284;-16.31;-23.21;-36.49;131.52;-11.42;2.55;5.0;;;;NaN;;;;0 / 0;76029;2022-01-06 16:20:28:642
-0.011;-0.351;11.9411;-0.4609;2.0223;9.5848;0.1384;3.1119;-4.1854;-19.26;-21.11;-36.11;120.3;-13.37;3.58;5.0;;;;NaN;;;;0 / 0;76529;2022-01-06 16:20:29:142
-2.3839;0.323;9.3041;-0.1639;1.7905;9.6404;0.4959;1.1535;-7.1857;-19.69;-20.51;-36.3;124.64;-10.81;0.16;5.0;;;;NaN;;;;0 / 0;77029;2022-01-06 16:20:29:642
-1.323;-1.2469;12.992;-0.246;1.8726;9.6231;0.939;3.9837;-3.9973;-19.01;-20.89;-35.46;123.63;-12.42;1.02;5.0;;;;NaN;;;;0 / 0;77529;2022-01-06 16:20:30:142
-1.0099;0.4301;13.311;-0.8322;1.6835;9.6252;2.0164;2.4028;-7.7891;-16.86;-19.8;-36.11;123.44;-11.04;4.37;5.0;;;;NaN;;;;0 / 0;78030;2022-01-06 16:20:30:643
0.09;2.46;8.001;-0.6972;1.7013;9.6327;2.71;3.432;-7.2471;-17.16;-21.0;-36.3;124.66;-11.2;5.12;5.0;;;;NaN;;;;0 / 0;78530;2022-01-06 16:20:31:143
0.6191;1.893;9.2561;-0.8648;1.867;9.5884;-1.5096;-0.0027;0.3353;-15.24;-23.16;-35.21;132.84;-10.63;4.45;5.0;;;;NaN;;;;0 / 0;79029;2022-01-06 16:20:31:642
0.8351;0.7631;12.2171;-0.286;2.1848;9.5559;-2.1744;-2.2931;0.3244;-15.24;-25.2;-33.71;136.55;-12.87;1.71;5.0;;;;NaN;;;;0 / 0;79529;2022-01-06 16:20:32:142
-0.234;1.977;9.5531;-0.3861;2.6547;9.4326;4.0303;2.6191;-0.7985;-11.4;-25.09;-35.04;139.84;-15.71;2.34;5.0;;;;NaN;;;;0 / 0;80029;2022-01-06 16:20:32:642
-2.345;0.069;13.902;-0.6545;2.2192;9.5298;1.6758;2.2477;-4.3868;-10.39;-26.4;-34.31;137.96;-14.93;5.21;5.0;;;;NaN;;;;0 / 0;80529;2022-01-06 16:20:33:142
-1.2611;1.1651;10.206;-0.3914;2.2212;9.5438;0.851;1.0591;-3.2649;-9.36;-26.34;-35.59;147.42;-15.72;1.27;5.0;;;;NaN;;;;0 / 0;81029;2022-01-06 16:20:33:642
-1.5791;-0.4519;11.4;-0.1571;1.8069;9.6375;0.6275;1.2058;0.8532;-5.21;-29.16;-33.19;166.14;-10.62;0.93;5.0;;;;NaN;;;;0 / 0;81529;2022-01-06 16:20:34:142
-1.311;1.563;5.802;-0.6948;1.7813;9.6185;1.0595;0.895;-1.9432;-1.14;-26.64;-35.7;171.56;-11.19;3.02;5.0;;;;NaN;;;;0 / 0;82029;2022-01-06 16:20:34:642
0.026;1.9961;6.225;-0.4984;1.1103;9.7308;-0.8661;-1.6819;3.7788;0.54;-26.76;-35.7;174.24;-7.74;3.94;5.0;;;;NaN;;;;0 / 0;82530;2022-01-06 16:20:35:143
-0.371;1.7831;6.7211;-1.0012;1.8487;9.5786;-0.47;-0.0445;3.79;-0.06;-28.56;-34.44;171.94;-11.1;5.24;5.0;;;;NaN;;;;0 / 0;83029;2022-01-06 16:20:35:642
-0.756;1.548;7.044;-0.4222;1.7964;9.6315;0.4718;0.363;2.2144;1.09;-24.79;-36.6;177.42;-9.28;2.86;5.0;;;;NaN;;;;0 / 0;83530;2022-01-06 16:20:36:143
-1.1891;0.675;7.379;-1.2295;1.3852;9.6302;0.9075;0.3978;4.6318;1.2;-25.69;-36.54;172.33;-8.23;6.22;5.0;;;;NaN;;;;0 / 0;84029;2022-01-06 16:20:36:642
0.524;2.039;7.305;0.0826;1.7289;9.6527;-1.0619;-0.6477;3.9955;-0.6;-25.5;-36.3;175.6;-8.45;0.91;5.0;;;;NaN;;;;0 / 0;84529;2022-01-06 16:20:37:142
1.6271;3.8051;6.8051;-0.3988;2.0322;9.5855;-1.9868;-1.6958;2.7747;0.54;-27.06;-35.81;179.59;-11.84;1.81;5.0;;;;NaN;;;;0 / 0;85030;2022-01-06 16:20:37:643
-0.378;2.1041;7.31;-0.0873;2.1487;9.568;0.6891;-0.0169;1.9814;2.04;-25.8;-36.19;185.46;-12.66;0.52;5.0;;;;NaN;;;;0 / 0;85529;2022-01-06 16:20:38:142
-0.057;3.1691;5.96;-0.6369;2.2664;9.5199;-0.4731;-0.7752;2.9922;1.56;-26.81;-35.1;179.55;-11.95;3.52;5.0;;;;NaN;;;;0 / 0;86029;2022-01-06 16:20:38:642
-0.835;2.405;13.998;0.6622;2.8977;9.3453;0.9681;-0.2259;4.5143;2.76;-28.14;-33.84;189.05;-12.83;-1.94;5.0;;;;NaN;;;;0 / 0;86530;2022-01-06 16:20:39:143
-1.503;0.38;18.569;-0.2963;3.0136;9.3274;0.1259;1.2429;-2.2635;4.74;-28.14;-32.94;192.27;-16.2;2.01;5.0;;;;NaN;;;;0 / 0;87029;2022-01-06 16:20:39:642
-1.048;2.826;13.811;0.2947;2.4012;9.5036;-0.2471;0.0725;-1.7221;4.99;-27.49;-33.84;198.68;-14.17;-1.78;5.0;;;;NaN;;;;0 / 0;87529;2022-01-06 16:20:40:142
1.505;1.8281;14.828;-0.4415;2.2577;9.533;0.7035;2.4196;-6.6088;7.5;-25.44;-35.21;202.95;-14.23;2.3;5.0;;;;NaN;;;;0 / 0;88030;2022-01-06 16:20:40:643
-0.591;4.0061;11.726;0.4314;2.4846;9.4769;1.0171;-1.5198;-2.2366;9.41;-24.79;-34.8;217.41;-13.22;-4.37;5.0;;;;NaN;;;;0 / 0;88529;2022-01-06 16:20:41:142
1.8401;0.275;13.3511;0.516;2.4283;9.4872;-1.9873;-0.0386;-2.0384;7.91;-26.16;-34.01;200.7;-10.85;3.65;5.0;;;;NaN;;;;0 / 0;89029;2022-01-06 16:20:41:642
0.483;-0.05;17.8301;0.4167;2.5255;9.4667;-0.062;2.5362;-8.3543;15.96;-21.71;-31.2;232.18;-14.92;-2.52;5.0;;;;NaN;;;;0 / 0;89530;2022-01-06 16:20:42:143
-0.4571;0.947;8.2031;-0.2982;1.8941;9.6174;2.2729;2.2445;-6.6177;19.91;-21.96;-30.6;230.87;-11.14;1.78;5.0;;;;NaN;;;;0 / 0;90029;2022-01-06 16:20:42:642
-2.312;1.5941;9.3281;-0.7134;2.4905;9.4583;1.49;0.8433;0.148;19.01;-21.3;-32.64;236.29;-14.84;2.7;5.0;;;;NaN;;;;0 / 0;90530;2022-01-06 16:20:43:143
0.0071;1.6511;7.41;-0.9842;2.2925;9.484;-2.0122;1.9374;-11.131;15.19;-23.34;-33.41;218.41;-14.72;7.35;5.0;;;;NaN;;;;0 / 0;91029;2022-01-06 16:20:43:642
-1.804;0.548;16.034;-0.9217;2.6529;9.3959;-1.8489;-1.5738;-5.1844;13.8;-22.01;-34.2;222.32;-15.7;5.6;5.0;;;;NaN;;;;0 / 0;91530;2022-01-06 16:20:44:143
2.97;0.438;14.495;0.2454;2.5718;9.4602;-2.4155;0.2227;1.5672;15.24;-28.39;-30.9;220.49;-13.04;-0.58;5.0;;;;NaN;;;;0 / 0;92029;2022-01-06 16:20:44:642
-0.952;1.3661;14.874;-1.7872;2.388;9.342;-0.7962;1.0681;-5.5326;13.69;-26.4;-32.64;207.17;-14.46;9.34;5.0;;;;NaN;;;;0 / 0;92530;2022-01-06 16:20:45:143
0.1691;3.564;6.546;-0.2412;2.5549;9.4649;1.5788;2.7041;-8.7923;2.51;-30.19;-34.26;186.5;-16.04;1.33;5.0;;;;NaN;;;;0 / 0;93030;2022-01-06 16:20:45:643
-1.254;1.7711;11.9081;-0.5646;3.1604;9.2663;1.4231;1.7973;-9.6275;3.96;-30.96;-33.79;185.99;-18.8;3.49;5.0;;;;NaN;;;;0 / 0;93529;2022-01-06 16:20:46:142
-0.038;0.995;6.692;-0.4824;1.2457;9.7152;-0.9658;0.6863;4.1382;6.24;-27.3;-37.44;190.46;-9.26;3.37;5.0;;;;NaN;;;;0 / 0;94029;2022-01-06 16:20:46:642
0.4571;0.459;7.214;-1.0138;1.5323;9.633;-0.9742;1.5711;-0.3846;6.19;-28.74;-35.81;187.12;-9.89;5.08;5.0;;;;NaN;;;;0 / 0;94529;2022-01-06 16:20:47:142
0.359;2.709;7.145;-0.2624;1.1386;9.7368;-1.9921;-1.3131;1.156;4.74;-30.0;-35.64;185.03;-9.19;1.43;5.0;;;;NaN;;;;0 / 0;95029;2022-01-06 16:20:47:642
-1.065;0.21;9.533;-1.2635;1.5257;9.6045;0.2125;1.2399;1.9638;6.36;-29.1;-35.81;191.67;-10.2;5.43;5.0;;;;NaN;;;;0 / 0;95530;2022-01-06 16:20:48:143
0.2321;1.701;6.1271;0.1236;1.7285;9.6523;-1.1248;0.2958;3.1117;-0.41;-31.09;-34.56;179.57;-11.92;0.28;5.0;;;;NaN;;;;0 / 0;96029;2022-01-06 16:20:48:642
-0.129;1.0481;8.9831;-0.9148;1.8173;9.5933;1.1044;1.1729;3.2468;4.31;-30.49;-35.46;183.13;-11.87;4.55;5.0;;;;NaN;;;;0 / 0;96529;2022-01-06 16:20:49:142
0.921;1.821;7.1351;-0.6324;1.5508;9.6626;-0.3318;2.4235;-1.7984;3.3;-30.36;-35.59;180.46;-10.54;4.48;5.0;;;;NaN;;;;0 / 0;97030;2022-01-06 16:20:49:643
0.356;0.962;8.964;-0.9349;1.89;9.5773;0.4959;1.7581;-0.9482;5.16;-29.64;-36.24;183.77;-11.11;5.58;5.0;;;;NaN;;;;0 / 0;97529;2022-01-06 16:20:50:142
0.2051;-0.6979;12.906;-0.2115;1.8142;9.6351;-1.5724;1.4172;-3.7647;1.14;-29.81;-36.49;178.81;-11.04;2.23;5.0;;;;NaN;;;;0 / 0;98030;2022-01-06 16:20:50:643
-0.5621;1.2731;7.121;-0.4585;1.9664;9.5965;1.0021;1.6658;-7.5448;7.39;-29.4;-35.29;196.15;-12.51;1.65;5.0;;;;NaN;;;;0 / 0;98529;2022-01-06 16:20:51:142
0.363;-0.3371;12.681;-0.0573;2.06;9.5877;-0.3719;2.3495;-3.0847;5.81;-30.0;-35.29;189.9;-11.18;1.73;5.0;;;;NaN;;;;0 / 0;99030;2022-01-06 16:20:51:643
-3.109;0.672;5.091;-0.7277;1.8919;9.5949;0.8869;2.9392;-10.9728;16.99;-24.54;-35.21;221.77;-12.41;3.38;5.0;;;;NaN;;;;0 / 0;99530;2022-01-06 16:20:52:143
0.1931;-1.1599;13.907;-0.9252;1.8128;9.5931;-1.1159;2.9705;-4.3132;17.51;-24.3;-34.86;221.14;-10.98;5.61;5.0;;;;NaN;;;;0 / 0;100029;2022-01-06 16:20:52:642
0.873;-0.9041;17.3891;0.0217;1.6771;9.6621;2.1328;1.9223;-5.1432;24.54;-13.39;-36.3;254.58;-9.15;-2.12;5.0;;;;NaN;;;;0 / 0;100530;2022-01-06 16:20:53:143
-1.867;0.672;13.454;-0.5439;1.0969;9.7299;1.8942;0.1299;-1.2481;22.8;-7.99;-38.7;257.31;-4.66;3.04;5.0;;;;NaN;;;;0 / 0;101030;2022-01-06 16:20:53:643
-2.06;2.762;14.0141;-0.1028;1.7551;9.6478;2.975;-1.0861;-2.8811;21.3;-1.74;-40.99;278.54;-7.41;-0.99;5.0;;;;NaN;;;;0 / 0;101530;2022-01-06 16:20:54:143
0.866;5.457;10.5;-0.7794;2.8819;9.3412;-0.7274;-1.9212;0.383;19.69;-15.06;-39.19;257.94;-15.55;4.49;5.0;;;;NaN;;;;0 / 0;102029;2022-01-06 16:20:54:642
-0.5261;7.283;10.029;0.0696;5.1039;8.3735;0.5312;-2.0623;-1.717;20.7;-15.6;-38.4;280.12;-28.66;-1.46;5.0;;;;NaN;;;;0 / 0;102530;2022-01-06 16:20:55:143
-0.181;7.358;11.309;-1.061;5.3031;8.1806;-0.6897;-1.7078;-0.3598;21.41;-17.4;-37.99;292.79;-31.71;7.24;5.0;;;;NaN;;;;0 / 0;103030;2022-01-06 16:20:55:643
-1.2731;8.339;7.1111;0.3914;5.7977;7.8996;1.3448;-1.7208;0.3676;21.19;-16.31;-38.7;292.55;-36.24;-2.84;5.0;;;;NaN;;;;0 / 0;103529;2022-01-06 16:20:56:142
-0.488;6.8171;6.977;-0.6109;5.8696;7.8323;-0.7199;-0.9269;0.1368;18.96;-17.46;-39.71;304.96;-36.03;5.2;5.0;;;;NaN;;;;0 / 0;104029;2022-01-06 16:20:56:642
0.0191;6.996;6.836;0.4455;5.6933;7.9723;1.2327;-0.1511;2.2442;18.06;-16.5;-41.04;295.66;-34.93;-3.23;5.0;;;;NaN;;;;0 / 0;104529;2022-01-06 16:20:57:142
0.117;5.5961;5.538;-0.6893;5.4841;8.1006;-0.4305;0.0087;1.5901;18.6;-18.54;-39.71;293.69;-33.51;4.37;5.0;;;;NaN;;;;0 / 0;105029;2022-01-06 16:20:57:642
-0.842;5.84;5.457;0.315;5.5951;8.0477;1.1868;0.5147;3.5121;18.84;-20.46;-38.89;281.75;-33.18;-1.98;5.0;;;;NaN;;;;0 / 0;105529;2022-01-06 16:20:58:142
-0.6191;4.0331;4.3631;-0.6493;5.5133;8.0841;-0.2043;1.8129;3.7236;20.59;-20.04;-36.71;285.96;-34.21;4.59;5.0;;;;NaN;;;;0 / 0;106030;2022-01-06 16:20:58:643
-1.024;5.3111;6.101;0.2227;5.0337;8.4132;0.2772;0.144;2.8698;19.8;-18.3;-37.5;278.85;-30.88;-1.52;5.0;;;;NaN;;;;0 / 0;106529;2022-01-06 16:20:59:142
-0.909;4.023;5.225;-0.7982;5.4701;8.1001;0.1643;1.4929;2.8618;22.01;-18.06;-35.1;288.23;-36.75;3.62;5.0;;;;NaN;;;;0 / 0;107030;2022-01-06 16:20:59:643
-0.378;4.3031;4.9781;0.1364;5.2448;8.2851;0.1138;0.879;2.53;21.0;-18.79;-35.46;278.63;-33.17;-0.2;5.0;;;;NaN;;;;0 / 0;107529;2022-01-06 16:21:00:142
-1.5701;3.801;4.421;-0.59;6.0509;7.6947;0.6098;2.0655;3.4004;23.21;-18.54;-32.29;285.86;-38.1;4.38;5.0;;;;NaN;;;;0 / 0;108029;2022-01-06 16:21:00:642
-0.0619;4.088;4.9301;0.1394;5.4911;8.124;0.2208;1.3504;3.2431;22.44;-18.0;-31.91;280.33;-35.31;0.63;5.0;;;;NaN;;;;0 / 0;108530;2022-01-06 16:21:01:143
-0.5261;4.157;6.6011;-0.7937;5.7693;7.8902;-0.6625;1.0464;-0.1304;26.16;-12.96;-31.69;290.33;-37.57;3.87;5.0;;;;NaN;;;;0 / 0;109029;2022-01-06 16:21:01:642
-0.787;4.0781;6.728;-0.0388;5.7437;7.9485;-0.5453;1.0968;-0.5012;21.6;-16.09;-34.31;289.85;-36.16;1.82;5.0;;;;NaN;;;;0 / 0;109529;2022-01-06 16:21:02:142
-1.172;4.1861;8.657;-0.5176;6.1764;7.5997;0.6538;1.9949;-1.0493;22.91;-16.56;-34.69;295.41;-39.04;3.9;5.0;;;;NaN;;;;0 / 0;110030;2022-01-06 16:21:02:643
0.888;5.0741;8.0681;-0.3414;6.1021;7.6693;-0.7937;0.4796;-0.7442;20.4;-18.0;-36.19;298.83;-39.45;3.63;5.0;;;;NaN;;;;0 / 0;110529;2022-01-06 16:21:03:142
-0.876;4.38;9.7031;-0.6421;6.0401;7.699;-0.6421;0.8508;-3.1019;22.09;-16.01;-36.19;299.29;-38.02;4.77;5.0;;;;NaN;;;;0 / 0;111030;2022-01-06 16:21:03:643
-0.181;4.1501;7.8911;-0.2183;5.6311;8.0258;0.4763;1.6267;-1.2224;18.96;-17.81;-37.5;297.86;-34.68;4.53;5.0;;;;NaN;;;;0 / 0;111529;2022-01-06 16:21:04:142
-1.457;3.53;10.302;-0.491;4.7907;8.5427;1.4431;1.5082;-4.4919;19.14;-7.61;-39.96;308.22;-31.5;2.41;5.0;;;;NaN;;;;0 / 0;112029;2022-01-06 16:21:04:642
1.3301;3.078;8.0681;0.1102;3.588;9.126;-0.8841;1.1772;-5.6384;17.21;-12.0;-40.44;280.98;-21.46;-0.69;5.0;;;;NaN;;;;0 / 0;112529;2022-01-06 16:21:05:142
-0.773;3.894;15.683;0.3185;4.6076;8.6509;0.8673;0.8149;-7.0689;18.19;-13.56;-39.79;285.17;-26.17;-3.27;5.0;;;;NaN;;;;0 / 0;113029;2022-01-06 16:21:05:642
3.906;5.1341;10.4981;-0.2043;4.4298;8.7467;-4.1655;-0.6777;-1.7497;17.29;-12.6;-41.16;294.95;-26.65;2.47;5.0;;;;NaN;;;;0 / 0;113529;2022-01-06 16:21:06:142
2.3621;5.543;11.664;0.132;4.8259;8.536;-0.0147;-1.8834;0.2;19.61;-13.8;-39.41;283.03;-27.08;-2.05;5.0;;;;NaN;;;;0 / 0;114030;2022-01-06 16:21:06:643
1.259;7.8101;12.92;-0.4614;4.7882;8.5458;-0.5295;-1.5589;-7.1857;19.14;-15.24;-38.76;278.8;-25.43;3.23;5.0;;;;NaN;;;;0 / 0;114530;2022-01-06 16:21:07:143
-0.576;5.936;11.049;0.5049;4.4382;8.7303;2.13;-0.891;-4.5217;19.2;-10.14;-40.61;293.12;-26.91;-3.31;5.0;;;;NaN;;;;0 / 0;115029;2022-01-06 16:21:07:642
0.2051;6.7661;12.176;-0.545;4.3924;8.751;0.2455;-1.0018;0.2839;19.14;-13.61;-39.79;286.41;-25.01;4.04;5.0;;;;NaN;;;;0 / 0;115529;2022-01-06 16:21:08:142
-0.7511;6.015;12.284;0.5881;4.7796;8.5428;-0.5418;-2.8336;-0.0601;18.41;-11.81;-40.2;285.29;-25.66;-4.73;5.0;;;;NaN;;;;0 / 0;116029;2022-01-06 16:21:08:642
0.7991;6.1061;10.05;-0.2796;5.0094;8.4261;-1.072;-1.0528;-1.636;17.34;-15.6;-39.9;293.94;-30.72;1.9;5.0;;;;NaN;;;;0 / 0;116529;2022-01-06 16:21:09:142
0.284;5.795;6.5891;0.5014;4.7795;8.5484;0.2138;-0.9759;1.952;17.04;-15.11;-39.79;286.93;-29.17;-3.36;5.0;;;;NaN;;;;0 / 0;117030;2022-01-06 16:21:09:643
-0.859;5.187;7.578;-0.0356;5.0294;8.4187;0.2338;0.8898;3.5884;17.81;-15.54;-39.24;290.18;-31.26;0.13;5.0;;;;NaN;;;;0 / 0;117530;2022-01-06 16:21:10:143
0.818;6.005;6.675;0.5994;4.6751;8.5997;-0.0544;-1.0455;3.6419;18.54;-14.4;-39.54;283.85;-27.52;-4.14;5.0;;;;NaN;;;;0 / 0;118030;2022-01-06 16:21:10:643
-0.359;3.681;5.474;-0.5107;4.9759;8.435;-0.4534;0.3021;3.2095;19.56;-16.26;-37.99;288.97;-30.49;3.47;5.0;;;;NaN;;;;0 / 0;118530;2022-01-06 16:21:11:143
-0.849;4.8011;5.148;0.5515;4.9385;8.4544;1.1329;1.5125;2.6882;19.56;-17.04;-37.44;279.55;-30.62;-2.34;5.0;;;;NaN;;;;0 / 0;119029;2022-01-06 16:21:11:642
-0.368;4.1981;5.4311;-0.8535;5.2677;8.2276;-0.1612;1.8886;1.4835;22.2;-15.96;-36.84;294.42;-36.21;4.84;5.0;;;;NaN;;;;0 / 0;119529;2022-01-06 16:21:12:142
-0.435;3.291;5.052;0.1495;4.8439;8.5255;-0.225;1.3455;2.7442;17.76;-14.21;-39.84;296.68;-31.22;0.56;5.0;;;;NaN;;;;0 / 0;120029;2022-01-06 16:21:12:642
-0.864;1.3691;6.723;-0.6144;4.0981;8.8881;0.6435;2.8398;2.1621;20.76;-10.39;-39.49;293.07;-24.7;3.95;5.0;;;;NaN;;;;0 / 0;120529;2022-01-06 16:21:13:142
-0.579;1.79;6.525;0.2745;3.0083;9.3298;0.1573;1.0442;0.2027;19.5;-6.66;-41.34;289.2;-19.56;-0.45;5.0;;;;NaN;;;;0 / 0;121030;2022-01-06 16:21:13:643
-1.747;0.435;10.127;-0.2541;2.8019;9.3944;0.5106;1.339;-0.0835;21.0;-5.04;-40.14;289.45;-17.32;0.79;5.0;;;;NaN;;;;0 / 0;121530;2022-01-06 16:21:14:143
0.89;2.738;5.565;-0.0635;2.732;9.4182;-0.4041;0.7162;2.2948;19.2;-8.51;-40.56;279.73;-16.22;2.09;5.0;;;;NaN;;;;0 / 0;122029;2022-01-06 16:21:14:642
-0.222;2.0051;8.456;-0.8116;3.3971;9.1636;-0.7554;0.3391;1.5902;22.01;-7.01;-39.54;295.1;-21.63;2.44;5.0;;;;NaN;;;;0 / 0;122530;2022-01-06 16:21:15:143
-6.584;3.1331;6.5561;-0.2458;2.9435;9.3512;1.4119;1.0344;0.2659;21.06;-2.64;-39.9;297.54;-19.97;2.15;5.0;;;;NaN;;;;0 / 0;123030;2022-01-06 16:21:15:643
-1.649;4.794;9.201;-0.8715;4.0618;8.8833;0.1946;-1.6113;0.2604;19.69;-8.1;-40.69;301.4;-24.02;4.92;5.0;;;;NaN;;;;0 / 0;123529;2022-01-06 16:21:16:142
0.584;5.816;11.132;-2.1445;4.9422;8.1943;-2.4714;-1.7726;-3.6146;25.31;-9.79;-35.04;303.45;-29.73;12.79;5.0;;;;NaN;;;;0 / 0;124030;2022-01-06 16:21:16:643
-3.1661;0.6911;11.144;-1.959;4.7877;8.3313;0.6561;2.8809;-1.094;21.19;-6.0;-39.54;323.52;-30.2;11.86;5.0;;;;NaN;;;;0 / 0;124530;2022-01-06 16:21:17:143
1.1561;4.5071;9.483;0.4553;1.7536;9.6378;0.2237;-2.4414;-4.4865;13.2;-2.81;-43.26;290.54;-10.84;-0.84;5.0;;;;NaN;;;;0 / 0;125030;2022-01-06 16:21:17:643
-3.942;5.471;15.561;0.0564;4.3248;8.8013;5.9248;-0.9176;-4.4821;21.54;-4.99;-39.84;298.11;-25.15;-5.21;5.0;;;;NaN;;;;0 / 0;125529;2022-01-06 16:21:18:142
-0.962;8.2121;8.906;-2.895;4.8036;8.0446;0.1968;-2.5923;-4.527;27.3;-11.16;-34.86;304.6;-28.61;17.95;5.0;;;;NaN;;;;0 / 0;126030;2022-01-06 16:21:18:643
-3.506;7.685;8.459;-2.0868;5.5714;7.7958;2.3368;0.0373;-2.7898;26.4;-10.69;-36.06;312.58;-34.62;14.99;5.0;;;;NaN;;;;0 / 0;126530;2022-01-06 16:21:19:143
-1.256;5.043;12.8561;-1.9653;4.9103;8.2581;-0.2355;-0.17;-3.9457;23.34;-10.86;-37.86;314.47;-29.69;15.7;5.0;;;;NaN;;;;0 / 0;127029;2022-01-06 16:21:19:642
0.32;-1.555;12.5111;0.1461;2.4835;9.4859;0.3912;2.715;0.047;13.01;13.61;-41.16;330.28;-14.67;-0.88;5.0;;;;NaN;;;;0 / 0;127530;2022-01-06 16:21:20:143
-1.0219;1.206;14.459;-0.5063;0.9705;9.7454;-0.8225;-0.2216;-4.135;19.39;0.84;-40.61;286.98;-5.68;2.97;5.0;;;;NaN;;;;0 / 0;128029;2022-01-06 16:21:20:642
-1.218;1.74;11.441;0.0797;1.2834;9.722;1.6132;-0.747;-0.2849;18.79;4.74;-40.01;294.39;-6.08;-1.71;5.0;;;;NaN;;;;0 / 0;128530;2022-01-06 16:21:21:143
0.5141;1.902;11.807;-0.5033;1.1341;9.7278;-1.9668;-1.7555;1.5901;16.09;1.99;-39.79;298.25;-5.39;6.24;5.0;;;;NaN;;;;0 / 0;129030;2022-01-06 16:21:21:643
-0.117;3.6551;9.4661;0.2517;1.6602;9.6618;0.1525;-1.0578;0.1692;14.7;-1.99;-39.11;281.94;-8.14;-2.04;5.0;;;;NaN;;;;0 / 0;129529;2022-01-06 16:21:22:142
0.2291;3.8771;8.258;-0.4611;1.8566;9.6183;0.1936;-0.8702;4.0869;19.5;-4.31;-38.7;280.42;-10.45;2.88;5.0;;;;NaN;;;;0 / 0;130029;2022-01-06 16:21:22:642
-2.642;2.862;5.6531;0.4395;1.9896;9.5926;0.4685;-0.377;0.6504;20.46;-4.39;-40.09;275.94;-11.76;-2.12;5.0;;;;NaN;;;;0 / 0;130529;2022-01-06 16:21:23:142
-1.95;0.596;5.402;-1.2764;2.0848;9.4971;-0.037;1.2539;3.9264;19.99;-1.09;-40.14;304.07;-14.07;8.52;5.0;;;;NaN;;;;0 / 0;131029;2022-01-06 16:21:23:642
0.54;2.384;5.885;0.6357;1.1715;9.7156;0.2314;-0.8605;3.2638;18.3;-1.2;-41.16;280.83;-7.05;-3.38;5.0;;;;NaN;;;;0 / 0;131530;2022-01-06 16:21:24:143
-0.3109;1.565;6.7421;-0.5388;1.4511;9.6837;-0.6543;0.734;1.3049;19.74;0.54;-40.26;291.7;-8.51;3.18;5.0;;;;NaN;;;;0 / 0;132029;2022-01-06 16:21:24:642
0.11;2.2451;5.1461;0.3767;0.8752;9.7603;0.5647;-0.5586;2.6212;20.21;-2.46;-40.14;276.37;-7.42;0.33;5.0;;;;NaN;;;;0 / 0;132529;2022-01-06 16:21:25:142
0.0041;1.6151;6.785;-0.5292;1.9055;9.6052;-0.2023;0.6388;2.223;20.46;-2.76;-39.49;286.52;-12.08;2.57;5.0;;;;NaN;;;;0 / 0;133029;2022-01-06 16:21:25:642
1.431;1.905;8.808;-0.1235;1.5006;9.6904;-2.3764;0.1589;-0.2104;18.96;-2.04;-39.66;285.8;-10.13;1.21;5.0;;;;NaN;;;;0 / 0;133529;2022-01-06 16:21:26:142
0.189;0.794;7.1921;-0.44;1.5518;9.6731;-1.9087;0.56;-0.1667;20.51;-4.2;-36.24;280.69;-10.22;1.86;5.0;;;;NaN;;;;0 / 0;134030;2022-01-06 16:21:26:643
1.8071;1.9721;6.917;0.7189;1.9131;9.5913;-0.7657;0.9189;2.6586;18.84;-1.56;-37.14;285.66;-13.18;-2.55;5.0;;;;NaN;;;;0 / 0;134530;2022-01-06 16:21:27:143
-0.864;1.194;7.07;-0.282;2.1847;9.556;0.0631;0.7355;1.4694;19.01;-0.49;-38.94;297.33;-14.34;0.37;5.0;;;;NaN;;;;0 / 0;135029;2022-01-06 16:21:27:642
0.392;1.412;9.828;0.3453;2.2069;9.5489;0.7;1.0355;0.6781;16.26;-5.7;-40.99;280.85;-12.89;-1.14;5.0;;;;NaN;;;;0 / 0;135529;2022-01-06 16:21:28:142
-1.4261;0.8921;7.571;-0.1641;2.5892;9.4572;1.2063;1.6406;1.9141;19.39;-3.84;-40.44;290.35;-15.31;0.99;5.0;;;;NaN;;;;0 / 0;136029;2022-01-06 16:21:28:642
2.288;0.758;11.7191;-0.0779;1.7034;9.6573;-2.1345;0.178;0.6406;17.89;-3.19;-40.69;283.35;-10.0;0.46;5.0;;;;NaN;;;;0 / 0;136530;2022-01-06 16:21:29:143
-2.388;-0.033;12.7481;0.1652;2.0132;9.5964;0.6147;-0.3159;-1.1228;18.84;-2.04;-41.21;284.35;-10.75;-3.33;5.0;;;;NaN;;;;0 / 0;137030;2022-01-06 16:21:29:643
-0.351;1.718;10.95;-0.2417;2.1724;9.5599;1.1748;0.5925;-5.8991;20.21;-5.29;-39.9;279.42;-11.48;1.4;5.0;;;;NaN;;;;0 / 0;137529;2022-01-06 16:21:30:142
-1.6301;2.171;13.677;-0.0571;2.1565;9.5664;1.8106;0.3272;-3.5065;20.16;-0.6;-40.2;291.66;-12.7;0.34;5.0;;;;NaN;;;;0 / 0;138030;2022-01-06 16:21:30:643
-0.033;2.4341;14.574;-0.8581;2.0008;9.5619;-0.7741;-0.3713;-5.018;18.66;-4.86;-41.7;281.94;-10.52;5.95;5.0;;;;NaN;;;;0 / 0;138529;2022-01-06 16:21:31:142
-1.06;3.207;10.4531;0.4471;2.4682;9.4804;1.4959;-0.7326;-0.9664;18.71;-4.91;-40.86;279.67;-12.11;-2.46;5.0;;;;NaN;;;;0 / 0;139029;2022-01-06 16:21:31:642
-0.203;2.7161;12.657;-0.3621;2.5143;9.4719;-1.3965;-1.7503;-0.8802;19.99;-6.71;-40.2;279.04;-13.61;3.0;5.0;;;;NaN;;;;0 / 0;139529;2022-01-06 16:21:32:142
-1.323;3.015;10.0961;-0.0312;1.9825;9.6041;1.29;-1.0275;-0.4886;19.31;-2.29;-40.8;285.93;-10.83;-1.19;5.0;;;;NaN;;;;0 / 0;140029;2022-01-06 16:21:32:642
0.39;2.769;10.991;-0.7025;1.9118;9.5928;-0.9885;-0.8123;0.2901;18.84;-3.19;-40.74;287.54;-10.89;4.2;5.0;;;;NaN;;;;0 / 0;140529;2022-01-06 16:21:33:142
-1.038;2.807;9.234;-0.4785;1.6992;9.6465;0.2259;-1.1392;2.1169;20.04;-1.01;-40.86;282.19;-8.55;0.97;5.0;;;;NaN;;;;0 / 0;141029;2022-01-06 16:21:33:642
1.0961;4.377;4.7771;-1.2338;1.4941;9.6133;-2.2769;-2.8582;4.8489;22.69;-4.31;-39.49;278.26;-9.01;7.46;5.0;;;;NaN;;;;0 / 0;141529;2022-01-06 16:21:34:142
-0.296;2.309;6.182;-0.4652;1.7846;9.6317;-0.215;-0.4485;3.4469;23.1;-4.56;-38.59;276.42;-10.49;2.77;5.0;;;;NaN;;;;0 / 0;142029;2022-01-06 16:21:34:642
-0.588;2.2901;8.124;-1.0169;2.2152;9.4989;0.502;0.7331;2.8929;21.6;-4.99;-40.01;283.22;-15.17;4.77;5.0;;;;NaN;;;;0 / 0;142530;2022-01-06 16:21:35:143
0.536;2.747;5.727;-0.0768;1.6188;9.6718;-0.39;-0.9554;3.2975;19.31;-4.5;-41.59;279.7;-9.52;1.36;5.0;;;;NaN;;;;0 / 0;143029;2022-01-06 16:21:35:642
-0.1721;1.9961;5.907;-0.5079;2.0027;9.5865;-0.0243;1.3571;2.3862;20.4;-5.34;-40.44;283.97;-13.14;3.01;5.0;;;;NaN;;;;0 / 0;143529;2022-01-06 16:21:36:142
-0.852;1.56;5.694;0.0782;1.5794;9.6783;0.9572;-0.0227;3.9926;19.2;-4.14;-41.7;278.48;-10.6;0.13;5.0;;;;NaN;;;;0 / 0;144029;2022-01-06 16:21:36:642
-0.8899;1.1171;6.5651;-0.7207;1.9858;9.5764;-0.1622;0.8826;2.7526;20.7;-3.79;-40.61;284.68;-11.68;4.3;5.0;;;;NaN;;;;0 / 0;144530;2022-01-06 16:21:37:143
-0.0709;1.962;5.972;0.3835;1.872;9.6187;-2.2423;-0.6411;2.6395;18.6;-8.04;-40.91;272.04;-12.13;-1.2;5.0;;;;NaN;;;;0 / 0;145029;2022-01-06 16:21:37:642
-0.701;0.3851;9.459;-0.6644;2.2805;9.5146;-0.3574;1.4348;1.8541;21.0;-4.39;-40.39;289.95;-15.3;2.65;5.0;;;;NaN;;;;0 / 0;145530;2022-01-06 16:21:38:143
0.282;1.95;8.174;-0.3393;1.4658;9.6905;-0.5296;-0.6541;1.5453;19.44;-1.44;-41.1;286.61;-8.6;2.01;5.0;;;;NaN;;;;0 / 0;146029;2022-01-06 16:21:38:642
-0.411;0.978;10.424;-1.1027;1.7574;9.5847;1.9707;1.877;0.4287;21.9;-3.66;-39.19;282.12;-11.03;5.47;5.0;;;;NaN;;;;0 / 0;146530;2022-01-06 16:21:39:143
0.3971;-0.8209;9.375;-0.6101;1.5864;9.6582;0.7423;3.4357;-2.8984;18.79;-4.01;-40.61;284.68;-11.05;4.19;5.0;;;;NaN;;;;0 / 0;147030;2022-01-06 16:21:39:643
-0.78;2.022;6.7571;-0.8509;2.1972;9.5194;-0.1286;0.1669;2.762;21.0;-3.79;-38.89;286.87;-11.72;0.37;5.0;;;;NaN;;;;0 / 0;147529;2022-01-06 16:21:40:142
-2.769;-0.993;12.8651;-0.3679;2.296;9.527;-0.6693;0.7778;-1.5972;19.74;-2.64;-37.8;288.38;-13.54;2.21;5.0;;;;NaN;;;;0 / 0;148030;2022-01-06 16:21:40:643
-3.643;0.318;8.964;-0.8872;2.2365;9.5069;1.4547;1.281;-4.4324;23.4;-1.69;-31.56;286.25;-13.18;5.33;5.0;;;;NaN;;;;0 / 0;148530;2022-01-06 16:21:41:143
-1.768;-1.768;17.4281;-1.352;2.1679;9.468;-0.374;2.6567;-7.8476;21.79;-5.94;-36.11;279.24;-12.77;8.13;5.0;;;;NaN;;;;0 / 0;149029;2022-01-06 16:21:41:642
-2.853;-0.543;11.2181;-0.3412;2.4243;9.4961;0.3618;0.8293;-4.2478;20.94;-3.9;-38.89;284.36;-13.66;0.2;5.0;;;;NaN;;;;0 / 0;149529;2022-01-06 16:21:42:142
-0.0709;-0.253;13.131;-0.5954;2.2485;9.5268;-1.399;1.3495;-1.0289;19.8;-6.36;-40.61;283.8;-13.58;4.39;5.0;;;;NaN;;;;0 / 0;150029;2022-01-06 16:21:42:642
-2.774;2.735;9.804;-0.2684;2.2186;9.5486;2.3891;-0.4789;-0.2543;21.19;-0.49;-39.9;288.79;-10.5;-1.06;5.0;;;;NaN;;;;0 / 0;150529;2022-01-06 16:21:43:142
1.4021;1.9361;11.4341;-0.8526;2.2589;9.5048;-0.5311;-0.365;-1.9653;18.6;-7.26;-40.86;277.11;-11.74;5.85;5.0;;;;NaN;;;;0 / 0;151029;2022-01-06 16:21:43:642
-2.4431;3.03;12.317;-0.2334;2.4368;9.4962;1.354;-0.7232;-2.4904;20.34;-1.99;-40.39;290.2;-13.45;-0.01;5.0;;;;NaN;;;;0 / 0;151529;2022-01-06 16:21:44:142
-1.012;2.0081;14.598;-0.2634;1.9768;9.6017;-0.8031;-0.5926;-2.6458;18.19;-3.66;-42.11;285.42;-11.63;1.57;5.0;;;;NaN;;;;0 / 0;152029;2022-01-06 16:21:44:642
-1.361;2.381;12.5951;0.5855;1.4977;9.6739;2.0499;-0.8188;-2.7082;21.49;-0.54;-40.86;282.2;-8.78;-3.46;5.0;;;;NaN;;;;0 / 0;152530;2022-01-06 16:21:45:143
1.625;2.226;13.394;-0.2464;1.9317;9.6114;-1.8673;-0.2884;-3.7774;21.0;-4.31;-40.69;281.28;-10.48;3.18;5.0;;;;NaN;;;;0 / 0;153030;2022-01-06 16:21:45:643
-3.396;3.4151;7.772;-0.3504;2.6274;9.4416;2.9028;-0.5799;1.6817;14.81;3.79;-43.26;303.54;-10.62;-3.52;5.0;;;;NaN;;;;0 / 0;153529;2022-01-06 16:21:46:142
1.122;3.597;9.0521;-0.5247;1.9473;9.597;-1.4843;-1.5449;0.5388;19.5;-6.66;-40.26;274.14;-11.45;3.13;5.0;;;;NaN;;;;0 / 0;154029;2022-01-06 16:21:46:642
-0.5689;2.886;8.159;0.284;2.6348;9.4418;0.2958;-0.1838;-0.09;22.8;-5.51;-36.6;279.36;-15.59;-1.72;5.0;;;;NaN;;;;0 / 0;154529;2022-01-06 16:21:47:142
0.122;3.8531;6.1301;-0.3107;2.6036;9.4496;-1.0816;-1.3347;3.3231;22.61;-6.3;-39.6;283.07;-15.4;1.88;5.0;;;;NaN;;;;0 / 0;155030;2022-01-06 16:21:47:643
-0.612;3.602;8.8991;0.1887;2.3077;9.5294;0.8254;-1.1439;0.5984;20.81;-3.71;-42.9;283.54;-10.78;-0.16;5.0;;;;NaN;;;;0 / 0;155529;2022-01-06 16:21:48:142
0.3731;3.456;9.0311;-0.7893;2.3983;9.4761;-1.2932;-0.8433;1.0995;19.69;-5.29;-44.1;291.01;-13.91;5.21;5.0;;;;NaN;;;;0 / 0;156029;2022-01-06 16:21:48:642
-0.4999;3.777;10.9481;0.2975;1.9576;9.6047;0.7557;-1.6343;-1.3702;20.16;-3.66;-44.34;279.81;-8.51;-1.23;5.0;;;;NaN;;;;0 / 0;156529;2022-01-06 16:21:49:142
0.246;3.588;7.865;-0.505;2.0314;9.5806;-0.3489;-1.1298;3.0102;18.19;-7.01;-44.4;279.73;-11.92;4.4;5.0;;;;NaN;;;;0 / 0;157029;2022-01-06 16:21:49:642
-1.373;2.597;13.524;0.5487;1.9093;9.6033;1.6612;-1.1935;0.8573;19.09;-5.21;-42.79;271.18;-8.65;-2.59;5.0;;;;NaN;;;;0 / 0;157530;2022-01-06 16:21:50:143
0.495;3.4301;7.779;-0.7854;1.6229;9.6395;-1.3077;-1.7403;3.6794;19.01;-5.89;-41.76;274.66;-9.53;4.66;5.0;;;;NaN;;;;0 / 0;158030;2022-01-06 16:21:50:643
0.677;2.6831;6.0911;0.3151;1.5666;9.6756;0.2475;-0.4839;3.9878;18.3;-4.01;-42.3;278.41;-9.41;-1.61;5.0;;;;NaN;;;;0 / 0;158529;2022-01-06 16:21:51:142
-1.529;1.73;6.5771;-0.0496;1.7503;9.6491;1.6091;1.1135;4.0814;18.9;-2.04;-42.19;288.98;-11.57;0.22;5.0;;;;NaN;;;;0 / 0;159029;2022-01-06 16:21:51:642
0.105;2.46;3.212;-0.1172;1.0935;9.7448;0.0326;-0.9904;5.9175;22.69;-3.84;-40.61;271.6;-6.4;0.69;5.0;;;;NaN;;;;0 / 0;159529;2022-01-06 16:21:52:142
-1.496;0.284;5.933;-1.0359;2.1109;9.5206;0.2914;1.4082;3.5919;22.56;-5.1;-40.5;285.21;-13.51;6.33;5.0;;;;NaN;;;;0 / 0;160029;2022-01-06 16:21:52:642
-1.239;0.813;5.613;-0.0822;1.1682;9.7365;-0.8147;-0.3129;4.5121;20.59;-1.26;-42.19;284.63;-8.35;1.53;5.0;;;;NaN;;;;0 / 0;160529;2022-01-06 16:21:53:142
-0.4399;0.402;6.5771;-0.9301;1.2049;9.6878;-0.4969;0.7337;3.1317;21.66;1.14;-42.79;290.1;-7.06;5.48;5.0;;;;NaN;;;;0 / 0;161029;2022-01-06 16:21:53:642
1.436;1.802;7.9031;0.1171;1.2866;9.7212;0.5659;-0.1224;3.6936;21.6;-1.91;-45.11;277.19;-8.3;0.73;5.0;;;;NaN;;;;0 / 0;161529;2022-01-06 16:21:54:142
0.282;0.957;5.1191;-1.1046;1.5768;9.6158;-1.4761;0.4877;4.5176;22.31;-2.34;-45.24;296.26;-12.22;2.34;5.0;;;;NaN;;;;0 / 0;162029;2022-01-06 16:21:54:642
-0.105;1.577;6.762;-0.0846;1.155;9.738;-1.4339;1.3132;0.0112;19.86;-3.9;-44.64;279.2;-8.81;1.64;5.0;;;;NaN;;;;0 / 0;162530;2022-01-06 16:21:55:143
-0.248;-0.1691;8.358;-0.8792;0.9528;9.7206;-0.8501;1.1173;0.4366;20.7;-2.16;-42.49;289.13;-9.11;3.53;5.0;;;;NaN;;;;0 / 0;163030;2022-01-06 16:21:55:643
0.6191;0.447;7.518;0.1067;1.051;9.7496;-1.3037;-0.6041;2.9357;18.19;-3.49;-42.41;274.64;-6.15;-0.63;5.0;;;;NaN;;;;0 / 0;163529;2022-01-06 16:21:56:142
-0.8111;0.452;7.743;-0.1948;1.5139;9.6871;0.5679;1.2279;0.7522;19.69;-4.01;-41.51;279.9;-10.02;0.63;5.0;;;;NaN;;;;0 / 0;164029;2022-01-06 16:21:56:642
1.529;1.5791;8.775;0.3906;1.5048;9.6826;-0.8761;0.674;-0.3283;17.29;-6.0;-42.06;274.99;-10.33;-1.18;5.0;;;;NaN;;;;0 / 0;164529;2022-01-06 16:21:57:142
-0.5089;0.749;7.901;0.1731;1.9036;9.6186;2.0792;1.7866;0.4763;19.86;-2.1;-41.1;286.25;-12.49;-3.8;5.0;;;;NaN;;;;0 / 0;165029;2022-01-06 16:21:57:642
0.773;0.737;7.116;0.0768;1.9308;9.6144;0.9621;3.9466;-2.4941;18.71;-4.86;-41.94;282.02;-11.24;2.54;5.0;;;;NaN;;;;0 / 0;165530;2022-01-06 16:21:58:143
-2.352;0.885;8.66;-0.4204;2.4678;9.4818;1.8359;1.5452;0.8417;20.76;-4.86;-41.04;286.57;-14.57;2.54;5.0;;;;NaN;;;;0 / 0;166029;2022-01-06 16:21:58:642
-2.2661;-1.8109;12.5951;-0.0057;2.5517;9.4688;0.6072;3.5052;-6.6985;17.59;-7.09;-41.94;285.03;-15.61;0.98;5.0;;;;NaN;;;;0 / 0;166529;2022-01-06 16:21:59:142
-0.789;1.433;17.6;-0.4345;2.3589;9.5088;0.3234;0.8879;-8.0795;19.39;-3.06;-42.54;288.94;-12.07;0.1;5.0;;;;NaN;;;;0 / 0;167029;2022-01-06 16:21:59:642
1.46;1.16;14.474;-0.3181;2.1867;9.5545;-2.0751;-0.3603;-2.4587;17.59;-5.81;-43.26;285.96;-11.88;4.29;5.0;;;;NaN;;;;0 / 0;167529;2022-01-06 16:22:00:142
-2.369;2.786;11.3741;-0.3735;2.6344;9.4388;2.1602;-0.3358;-5.9415;20.04;-3.54;-42.0;289.66;-14.87;0.66;5.0;;;;NaN;;;;0 / 0;168030;2022-01-06 16:22:00:643
-0.55;2.1971;14.2781;-0.3487;2.5796;9.4549;-0.1592;-0.0529;-3.8999;19.61;-6.84;-42.3;281.53;-13.85;3.59;5.0;;;;NaN;;;;0 / 0;168529;2022-01-06 16:22:01:142
-1.749;3.312;10.0361;-0.0657;2.3092;9.5307;2.0315;0.5304;-1.8576;21.11;-1.69;-42.24;282.14;-9.09;-0.65;5.0;;;;NaN;;;;0 / 0;169030;2022-01-06 16:22:01:643
0.0161;1.9841;12.0251;-0.7763;1.6856;9.6295;-0.6809;0.1057;-2.1794;19.86;-3.96;-42.84;282.66;-9.9;4.61;5.0;;;;NaN;;;;0 / 0;169530;2022-01-06 16:22:02:143
-1.06;3.152;11.2451;-0.219;2.1058;9.5754;1.0654;-0.4331;-1.3744;20.1;-0.96;-43.2;288.51;-10.59;-0.69;5.0;;;;NaN;;;;0 / 0;170029;2022-01-06 16:22:02:642
-0.122;2.264;10.6031;-0.1432;1.9928;9.601;-0.9468;-0.7313;-2.5075;19.69;-5.34;-42.36;279.42;-10.74;2.17;5.0;;;;NaN;;;;0 / 0;170529;2022-01-06 16:22:03:142
-0.275;3.056;14.361;-0.0213;2.2338;9.5488;1.1869;-1.1437;1.0728;20.16;-0.9;-43.2;282.39;-7.28;-0.3;5.0;;;;NaN;;;;0 / 0;171029;2022-01-06 16:22:03:642
0.947;3.6191;9.165;-0.4112;2.1467;9.56;-1.5667;-0.9017;4.0032;15.54;-9.71;-44.29;270.06;-12.64;2.46;5.0;;;;NaN;;;;0 / 0;171529;2022-01-06 16:22:04:142
-0.3439;3.8171;12.4061;0.6604;2.3164;9.5062;1.1916;-1.6335;0.6258;17.76;-4.61;-44.21;278.7;-12.16;-4.34;5.0;;;;NaN;;;;0 / 0;172030;2022-01-06 16:22:04:643
0.5171;3.951;8.3891;-0.16;2.2766;9.5374;-0.4868;-1.4417;2.1824;18.11;-8.29;-43.69;275.72;-12.2;2.28;5.0;;;;NaN;;;;0 / 0;172529;2022-01-06 16:22:05:142
-0.378;3.813;8.6621;0.3943;2.5409;9.4635;1.0951;-1.1566;3.8173;19.09;-8.34;-43.31;275.08;-13.24;-2.56;5.0;;;;NaN;;;;0 / 0;173029;2022-01-06 16:22:05:642
0.33;3.056;5.2061;-0.8053;2.2909;9.5012;-1.1622;-0.7679;4.2976;19.91;-8.94;-42.49;274.95;-13.51;4.84;5.0;;;;NaN;;;;0 / 0;173529;2022-01-06 16:22:06:142
-0.2321;3.1061;4.7891;0.5982;2.2887;9.5171;0.8297;-0.8167;4.7363;20.51;-10.39;-41.7;270.58;-14.07;-2.97;5.0;;;;NaN;;;;0 / 0;174029;2022-01-06 16:22:06:642
-0.303;1.895;6.941;-0.9641;2.7253;9.3709;-0.3921;0.7504;2.6561;20.94;-9.19;-42.3;284.95;-17.46;5.32;5.0;;;;NaN;;;;0 / 0;174529;2022-01-06 16:22:07:142
-0.201;2.4;4.8731;0.3018;2.5217;9.4721;-0.0659;0.7102;3.6289;18.11;-7.5;-44.1;285.03;-16.51;-0.01;5.0;;;;NaN;;;;0 / 0;175029;2022-01-06 16:22:07:642
-0.4609;0.78;5.483;-0.5369;2.391;9.4955;-0.1693;1.7764;3.3002;19.2;-6.3;-43.2;290.56;-15.88;3.06;5.0;;;;NaN;;;;0 / 0;175529;2022-01-06 16:22:08:142
-0.852;1.8281;4.392;0.4625;2.5072;9.4695;0.2627;0.5928;2.0151;16.5;-8.59;-43.61;280.62;-16.16;-1.79;5.0;;;;NaN;;;;0 / 0;176030;2022-01-06 16:22:08:643
-0.16;1.608;8.3051;-0.5294;3.021;9.3147;-0.4404;1.3428;1.039;19.56;-7.99;-41.7;288.38;-18.79;1.95;5.0;;;;NaN;;;;0 / 0;176530;2022-01-06 16:22:09:143
2.549;2.223;5.8061;0.0656;2.7469;9.4139;-2.8473;6.0E-4;3.3039;18.24;-8.89;-41.94;285.43;-18.55;0.47;5.0;;;;NaN;;;;0 / 0;177029;2022-01-06 16:22:09:642
-0.672;0.6311;8.4371;-1.6297;1.8758;9.4866;-0.9487;1.113;0.0069;23.4;-2.94;-39.36;289.75;-12.79;7.69;5.0;;;;NaN;;;;0 / 0;177529;2022-01-06 16:22:10:142
1.227;0.84;8.8391;-0.9555;1.9207;9.5691;-0.4516;2.2476;-1.0547;19.5;-6.11;-41.4;283.71;-12.63;7.21;5.0;;;;NaN;;;;0 / 0;178030;2022-01-06 16:22:10:643
-1.9931;1.436;7.0061;-0.6379;2.4342;9.4783;1.4419;-0.3828;-3.0745;21.24;-4.31;-40.61;288.96;-15.29;0.75;5.0;;;;NaN;;;;0 / 0;178530;2022-01-06 16:22:11:143
1.871;1.115;14.6921;-0.4801;2.6387;9.4328;-2.733;-0.3157;-2.2691;18.49;-9.0;-41.46;279.06;-15.2;4.21;5.0;;;;NaN;;;;0 / 0;179030;2022-01-06 16:22:11:643
-0.56;1.227;17.8901;-0.5809;2.5085;9.4626;1.8434;-0.2687;-3.4166;20.51;-3.79;-40.74;288.25;-14.64;1.32;5.0;;;;NaN;;;;0 / 0;179529;2022-01-06 16:22:12:142
0.947;2.379;11.757;-0.3904;2.5507;9.4611;-1.3302;0.1808;-2.2933;18.9;-8.16;-41.29;280.27;-15.08;2.36;5.0;;;;NaN;;;;0 / 0;180029;2022-01-06 16:22:12:642
-2.3209;1.874;11.412;-0.5333;2.1071;9.5627;2.2271;-0.2733;-1.6711;22.99;-2.81;-39.49;285.36;-12.41;3.19;5.0;;;;NaN;;;;0 / 0;180529;2022-01-06 16:22:13:142
0.071;1.9961;14.546;-0.7885;1.9339;9.5817;-0.6196;-1.3221;-2.8798;19.2;-7.26;-41.16;270.22;-9.4;5.56;5.0;;;;NaN;;;;0 / 0;181029;2022-01-06 16:22:13:642
-1.3811;3.14;14.412;-0.1078;2.1954;9.5571;0.7458;-1.5881;-3.0643;20.16;-4.74;-40.26;271.37;-7.63;-0.09;5.0;;;;NaN;;;;0 / 0;181529;2022-01-06 16:22:14:142
0.318;3.389;12.861;-0.7556;1.9527;9.5805;-0.7496;-1.3601;-3.1595;19.31;-8.46;-40.86;272.17;-11.49;4.51;5.0;;;;NaN;;;;0 / 0;182030;2022-01-06 16:22:14:643
-1.7231;2.585;13.265;0.8289;2.5954;9.4206;2.659;-0.7288;-0.5037;20.89;-7.2;-40.61;265.58;-10.34;-4.01;5.0;;;;NaN;;;;0 / 0;182529;2022-01-06 16:22:15:142
0.2921;4.095;6.9;-0.9445;2.2669;9.4942;-1.2177;-1.7921;2.597;21.36;-10.44;-40.26;269.84;-13.37;5.68;5.0;;;;NaN;;;;0 / 0;183029;2022-01-06 16:22:15:642
-2.1919;3.1451;9.95;0.3386;2.3283;9.5202;2.2726;-1.0087;1.171;21.49;-6.96;-40.31;273.84;-12.18;-1.47;5.0;;;;NaN;;;;0 / 0;183530;2022-01-06 16:22:16:143
-0.1571;3.0371;6.4121;-1.3282;2.0427;9.4991;-1.2061;-0.1696;4.4928;22.91;-9.41;-39.71;270.37;-12.02;7.96;5.0;;;;NaN;;;;0 / 0;184030;2022-01-06 16:22:16:643
-0.023;2.9651;9.126;0.04;1.8399;9.6324;0.1038;-0.8886;0.4603;22.31;-4.61;-40.99;277.11;-10.81;-0.24;5.0;;;;NaN;;;;0 / 0;184530;2022-01-06 16:22:17:143
-0.552;1.826;4.796;-0.7355;1.712;9.628;-0.0545;0.5134;4.6293;22.01;-5.4;-40.86;277.59;-10.05;4.37;5.0;;;;NaN;;;;0 / 0;185029;2022-01-06 16:22:17:642
0.296;2.4791;5.8781;0.4112;2.0615;9.5787;0.2886;0.1819;3.109;18.66;-4.09;-43.14;287.39;-13.18;0.12;5.0;;;;NaN;;;;0 / 0;185529;2022-01-06 16:22:18:142
-0.205;1.208;6.9791;-0.5463;1.6767;9.6468;-0.2058;0.6552;2.9047;20.76;-5.51;-41.76;274.49;-9.84;3.24;5.0;;;;NaN;;;;0 / 0;186030;2022-01-06 16:22:18:643
-0.1669;1.718;6.1541;0.5857;1.7122;9.6382;0.1764;-0.1174;3.3617;19.74;-5.7;-41.64;274.89;-10.87;-2.45;5.0;;;;NaN;;;;0 / 0;186530;2022-01-06 16:22:19:143
-0.327;0.689;6.479;-0.4319;1.6807;9.6519;-0.105;0.9997;3.1822;21.71;-4.14;-39.79;281.35;-11.16;2.82;5.0;;;;NaN;;;;0 / 0;187030;2022-01-06 16:22:19:643
-0.696;1.668;5.5841;-0.1321;2.0451;9.5901;-2.1888;-0.8288;2.7255;20.46;-5.64;-40.69;281.07;-12.9;2.83;5.0;;;;NaN;;;;0 / 0;187530;2022-01-06 16:22:20:143
0.311;0.6911;7.956;-1.1843;3.0651;9.2398;-1.77;2.098;-0.1174;20.64;1.09;-40.91;313.76;-19.72;5.94;5.0;;;;NaN;;;;0 / 0;188029;2022-01-06 16:22:20:642
0.969;1.704;9.9641;-0.2671;2.6623;9.4346;-2.4463;0.5376;-0.985;15.84;-0.71;-43.2;311.8;-17.33;3.25;5.0;;;;NaN;;;;0 / 0;188530;2022-01-06 16:22:21:143
0.962;2.01;8.423;-0.481;2.0738;9.5728;2.4754;1.4198;0.5579;18.79;-0.71;-42.66;305.43;-14.51;-1.01;5.0;;;;NaN;;;;0 / 0;189030;2022-01-06 16:22:21:643
2.1371;1.23;8.246;0.0137;2.53;9.4747;-2.4197;0.3484;2.1437;17.89;-5.29;-44.16;294.36;-15.45;2.91;5.0;;;;NaN;;;;0 / 0;189529;2022-01-06 16:22:22:142
0.098;0.8831;8.3291;-0.7158;2.3554;9.4926;0.7197;1.346;1.0207;21.3;-5.1;-42.84;290.71;-15.57;3.19;5.0;;;;NaN;;;;0 / 0;190029;2022-01-06 16:22:22:642
-0.4661;-0.342;10.713;0.0808;2.8993;9.3679;-0.0554;3.2398;-2.6725;20.46;-11.94;-41.51;272.54;-17.2;-0.49;5.0;;;;NaN;;;;0 / 0;190530;2022-01-06 16:22:23:143
0.6701;1.821;10.587;-0.7502;2.5047;9.4517;0.3063;3.1101;-11.2884;21.24;-4.8;-41.46;292.37;-16.99;3.62;5.0;;;;NaN;;;;0 / 0;191030;2022-01-06 16:22:23:643
-1.4861;-0.019;11.625;0.1948;2.4465;9.4946;1.1215;2.9835;-7.1239;21.79;-7.14;-41.04;281.79;-16.25;-0.61;5.0;;;;NaN;;;;0 / 0;191529;2022-01-06 16:22:24:142
-3.2291;-1.2971;13.287;-0.5882;2.5113;9.4614;2.6398;3.8052;-3.8185;22.39;1.99;-41.21;299.58;-15.8;-0.93;5.0;;;;NaN;;;;0 / 0;192029;2022-01-06 16:22:24:642
1.1651;0.107;9.069;-1.0011;2.6296;9.3943;-1.6332;3.1464;-2.1775;18.41;-5.34;-43.26;303.92;-17.24;6.94;5.0;;;;NaN;;;;0 / 0;192529;2022-01-06 16:22:25:142
1.5671;3.884;15.0701;-0.7503;1.9321;9.5851;-2.6367;-2.5098;-0.6858;16.56;-9.19;-43.01;269.51;-11.36;4.48;5.0;;;;NaN;;;;0 / 0;193030;2022-01-06 16:22:25:643
2.58;2.513;14.448;0.4649;2.3873;9.5003;-2.156;-0.6374;-2.4737;15.71;-14.46;-41.94;256.84;-13.46;-0.91;5.0;;;;NaN;;;;0 / 0;193530;2022-01-06 16:22:26:143
-2.362;2.451;12.4421;0.2693;2.135;9.5676;1.5814;-0.2932;-2.252;22.44;-9.6;-39.41;266.51;-12.57;-1.61;5.0;;;;NaN;;;;0 / 0;194030;2022-01-06 16:22:26:643
-1.625;1.046;13.004;-0.3212;2.165;9.5593;1.6485;-0.9521;-3.5605;21.79;-12.36;-40.01;260.06;-11.54;2.06;5.0;;;;NaN;;;;0 / 0;194529;2022-01-06 16:22:27:142
-0.804;2.939;14.5601;-0.1871;1.9428;9.6105;0.5324;-0.893;-4.9573;23.04;-10.69;-39.6;262.89;-11.43;1.12;5.0;;;;NaN;;;;0 / 0;195029;2022-01-06 16:22:27:642
0.081;2.735;12.008;-1.0112;2.0292;9.541;-0.1588;-1.0765;0.673;21.9;-15.0;-38.94;250.85;-11.94;6.05;5.0;;;;NaN;;;;0 / 0;195530;2022-01-06 16:22:28:143
-2.671;3.212;13.2671;0.1202;2.4945;9.4833;2.2898;-0.416;-3.1446;22.69;-9.24;-40.44;270.9;-13.56;-2.44;5.0;;;;NaN;;;;0 / 0;196030;2022-01-06 16:22:28:643
-0.4609;4.301;9.134;-0.7729;2.0;9.5694;-0.6233;-2.5403;1.9405;23.04;-14.16;-39.24;249.63;-9.55;6.03;5.0;;;;NaN;;;;0 / 0;196530;2022-01-06 16:22:29:143
0.485;4.179;7.484;-0.2236;1.8899;9.6202;-0.6416;-2.3546;2.1586;24.06;-9.0;-38.81;261.81;-10.79;-0.39;5.0;;;;NaN;;;;0 / 0;197029;2022-01-06 16:22:29:642
-1.019;2.7671;6.1871;-1.1431;1.5464;9.6163;-0.1624;-0.3877;4.4678;23.21;-12.19;-39.66;254.11;-9.07;6.78;5.0;;;;NaN;;;;0 / 0;197529;2022-01-06 16:22:30:142
-1.215;1.689;6.0581;0.3057;2.1242;9.5689;0.9074;0.5833;4.1762;20.64;-10.44;-40.8;269.83;-13.48;1.26;5.0;;;;NaN;;;;0 / 0;198029;2022-01-06 16:22:30:642
-0.4999;1.8881;5.979;-0.4923;2.3901;9.4982;-0.3219;1.7287;2.6625;21.71;-12.06;-40.2;269.78;-15.97;5.09;5.0;;;;NaN;;;;0 / 0;198530;2022-01-06 16:22:31:143
0.071;1.9241;4.8491;0.4807;2.0201;9.5843;0.7395;0.1405;4.5175;20.21;-10.56;-40.74;263.44;-11.89;-2.87;5.0;;;;NaN;;;;0 / 0;199030;2022-01-06 16:22:31:643
-0.6649;1.3901;4.1621;-0.7309;2.2156;9.5251;0.3441;1.3421;4.8531;21.96;-11.46;-39.54;265.99;-13.06;4.39;5.0;;;;NaN;;;;0 / 0;199529;2022-01-06 16:22:32:142
-0.1691;1.5671;5.51;0.6341;2.0172;9.576;-1.748;-0.1142;2.2833;18.9;-10.61;-42.06;267.49;-13.72;-2.08;5.0;;;;NaN;;;;0 / 0;200029;2022-01-06 16:22:32:642
-0.847;0.8561;9.237;-1.2288;2.1483;9.4892;-1.0381;0.6773;-0.3174;23.4;-7.09;-40.56;282.38;-14.66;3.71;5.0;;;;NaN;;;;0 / 0;200529;2022-01-06 16:22:33:142
2.5751;2.726;6.881;0.2482;2.4385;9.4954;0.4252;2.1389;1.364;18.49;-12.0;-42.19;266.1;-14.4;-1.5;5.0;;;;NaN;;;;0 / 0;201029;2022-01-06 16:22:33:642
0.315;1.194;9.344;0.0675;2.5039;9.4814;-0.2641;1.2342;0.1599;18.79;-9.06;-43.26;279.23;-16.04;-0.66;5.0;;;;NaN;;;;0 / 0;201529;2022-01-06 16:22:34:142
-0.0161;-0.069;10.3331;0.317;2.471;9.4849;-0.2321;1.6969;1.7194;20.29;-13.01;-40.86;264.46;-15.04;-0.97;5.0;;;;NaN;;;;0 / 0;202030;2022-01-06 16:22:34:643
-0.244;0.6791;9.213;-0.1446;2.5618;9.465;0.0175;1.7897;0.2841;21.41;-6.49;-41.94;286.58;-16.82;-0.48;5.0;;;;NaN;;;;0 / 0;202529;2022-01-06 16:22:35:142
0.8111;0.311;14.723;0.0319;2.6011;9.4554;-1.5372;0.3341;-0.1;20.34;-7.74;-42.11;278.27;-15.82;-0.15;5.0;;;;NaN;;;;0 / 0;203029;2022-01-06 16:22:35:642
-1.11;0.576;8.006;-0.5208;2.2276;9.5361;0.1148;0.9287;-4.8264;20.81;-3.0;-42.3;292.53;-14.82;0.49;5.0;;;;NaN;;;;0 / 0;203529;2022-01-06 16:22:36:142
2.723;1.16;14.345;-0.1905;2.2497;9.5432;-3.5002;-0.3926;-1.5437;18.54;-8.4;-42.19;273.43;-12.09;1.46;5.0;;;;NaN;;;;0 / 0;204029;2022-01-06 16:22:36:642
-2.9171;2.81;12.8651;0.28;2.6975;9.4242;3.064;-0.0861;-3.4368;20.89;-5.94;-41.46;280.43;-14.99;-4.11;5.0;;;;NaN;;;;0 / 0;204530;2022-01-06 16:22:37:143
2.865;2.826;8.8271;-0.0069;2.4803;9.4878;-0.6532;-0.7678;-2.4008;18.06;-10.2;-42.06;273.03;-14.65;0.04;5.0;;;;NaN;;;;0 / 0;205029;2022-01-06 16:22:37:642
-0.892;2.9441;11.448;0.3032;2.3098;9.5259;0.3032;-0.9046;-3.4679;19.5;-5.81;-42.66;279.0;-12.87;-2.79;5.0;;;;NaN;;;;0 / 0;205530;2022-01-06 16:22:38:143
0.0311;1.2971;14.012;-0.8184;2.388;9.4762;-0.8197;1.0879;-4.5218;21.54;-5.51;-42.06;285.15;-12.63;4.16;5.0;;;;NaN;;;;0 / 0;206030;2022-01-06 16:22:38:643
-1.974;2.4821;15.683;-0.0746;2.25;9.5448;1.6152;-0.173;-2.7627;21.24;-1.31;-43.09;287.29;-10.84;-1.89;5.0;;;;NaN;;;;0 / 0;206530;2022-01-06 16:22:39:143
0.6551;3.116;12.894;-0.8956;1.5701;9.6386;-1.9522;-1.5821;-2.2282;21.54;-6.66;-41.94;267.16;-7.91;6.43;5.0;;;;NaN;;;;0 / 0;207029;2022-01-06 16:22:39:642
-1.809;3.207;12.798;-0.0805;2.2054;9.5551;2.4315;-0.4787;-0.9355;20.51;-2.34;-42.79;287.81;-12.16;-1.12;5.0;;;;NaN;;;;0 / 0;207529;2022-01-06 16:22:40:142
0.945;4.538;7.137;-0.5518;2.0576;9.5725;-0.6839;-1.6271;4.2881;20.76;-9.24;-41.51;267.52;-10.72;3.76;5.0;;;;NaN;;;;0 / 0;208030;2022-01-06 16:22:40:643
0.351;4.148;7.721;1.0696;2.4784;9.4278;0.3308;-1.709;3.6844;19.8;-7.14;-41.34;272.31;-12.43;-4.85;5.0;;;;NaN;;;;0 / 0;208529;2022-01-06 16:22:41:142
-0.347;4.1621;6.606;-0.8092;2.2948;9.5;0.2593;-0.442;4.4945;23.04;-9.84;-39.49;269.14;-13.38;4.76;5.0;;;;NaN;;;;0 / 0;209030;2022-01-06 16:22:41:643
-1.1411;2.451;6.158;0.2351;2.0467;9.5878;1.243;-0.5548;2.7095;23.1;-2.81;-40.26;283.21;-12.64;-1.68;5.0;;;;NaN;;;;0 / 0;209530;2022-01-06 16:22:42:143
0.426;3.267;4.832;-0.7389;1.5412;9.6566;-1.0762;0.3391;4.2163;22.14;-6.36;-40.99;277.82;-11.0;6.53;5.0;;;;NaN;;;;0 / 0;210029;2022-01-06 16:22:42:642
-0.6191;1.8041;4.739;0.3034;1.9094;9.6142;0.7529;0.0298;5.8686;21.41;-5.76;-41.7;277.91;-12.24;-0.66;5.0;;;;NaN;;;;0 / 0;210529;2022-01-06 16:22:43:142
-1.194;0.612;6.857;-0.9578;1.9644;9.56;0.5405;1.7056;1.919;20.76;-3.3;-42.41;289.3;-11.56;5.72;5.0;;;;NaN;;;;0 / 0;211029;2022-01-06 16:22:43:642
0.8231;2.015;6.584;0.0682;1.2819;9.7223;-0.6037;-0.7907;3.1506;16.44;-3.36;-45.11;280.06;-7.51;-0.4;5.0;;;;NaN;;;;0 / 0;211529;2022-01-06 16:22:44:142
1.256;1.709;7.104;-0.4748;1.766;9.6346;-1.5194;0.5882;3.0692;18.96;-3.54;-44.64;284.48;-10.37;2.82;5.0;;;;NaN;;;;0 / 0;212029;2022-01-06 16:22:44:642
1.457;2.283;6.503;0.5612;1.9989;9.5844;-1.4036;-0.1365;3.0748;18.6;-8.34;-43.56;278.98;-14.92;-2.82;5.0;;;;NaN;;;;0 / 0;212529;2022-01-06 16:22:45:142
-0.804;-0.225;10.445;-0.4507;2.2997;9.5225;3.5401;3.9614;1.2686;23.21;-0.06;-41.89;296.39;-15.12;0.41;5.0;;;;NaN;;;;0 / 0;213030;2022-01-06 16:22:45:643
3.063;3.341;7.109;-0.2256;1.8651;9.625;-0.9883;0.8993;-0.0061;18.79;-6.79;-43.99;278.68;-12.22;2.33;5.0;;;;NaN;;;;0 / 0;213530;2022-01-06 16:22:46:143
-2.223;1.175;7.262;-0.3121;2.3621;9.5128;1.0635;1.2316;2.8933;20.04;-3.96;-42.96;289.95;-14.84;0.32;5.0;;;;NaN;;;;0 / 0;214030;2022-01-06 16:22:46:643
-0.7751;-1.041;9.876;0.2315;2.1896;9.5563;1.0722;3.1149;-0.2962;18.54;-6.9;-43.09;280.99;-13.97;0.44;5.0;;;;NaN;;;;0 / 0;214529;2022-01-06 16:22:47:142
-1.7089;0.8111;17.447;-0.5633;2.2413;9.5305;1.0723;1.403;-7.8997;23.29;-3.36;-41.51;288.8;-13.21;3.38;5.0;;;;NaN;;;;0 / 0;215029;2022-01-06 16:22:47:642
0.09;-0.0709;14.9021;-0.4959;2.7572;9.398;-1.643;-0.2619;-1.0719;20.7;-7.31;-42.06;286.02;-16.33;3.02;5.0;;;;NaN;;;;0 / 0;215530;2022-01-06 16:22:48:143
-0.756;3.473;10.9001;-0.5944;2.728;9.4008;0.2352;-0.7432;-1.4874;20.51;-1.56;-42.0;296.04;-15.63;1.91;5.0;;;;NaN;;;;0 / 0;216029;2022-01-06 16:22:48:642
1.352;2.156;10.505;-0.6798;1.8622;9.6042;-1.3411;-1.1018;-1.6466;18.84;-1.69;-43.99;294.17;-9.3;6.02;5.0;;;;NaN;;;;0 / 0;216529;2022-01-06 16:22:49:142
-0.308;3.4421;14.586;0.2739;2.2773;9.5346;0.6153;-1.2051;-5.0286;18.41;-3.24;-44.04;286.71;-12.07;-2.89;5.0;;;;NaN;;;;0 / 0;217030;2022-01-06 16:22:49:643
0.732;3.513;13.416;-0.3545;2.3241;9.5207;0.0184;-0.743;-3.246;18.9;-8.46;-43.5;278.44;-13.71;2.13;5.0;;;;NaN;;;;0 / 0;217529;2022-01-06 16:22:50:142
-1.165;3.501;13.7321;0.6875;2.7513;9.3877;1.6329;-0.6395;-4.3613;19.86;-3.11;-44.29;286.38;-13.77;-5.39;5.0;;;;NaN;;;;0 / 0;218029;2022-01-06 16:22:50:642
0.78;3.939;10.034;-0.4099;2.175;9.5536;-0.2192;-1.3118;-0.2803;19.01;-7.31;-43.5;276.31;-11.35;3.47;5.0;;;;NaN;;;;0 / 0;218529;2022-01-06 16:22:51:142
-1.11;2.939;12.7121;0.5105;2.2147;9.5396;1.5353;-0.6164;-3.1874;20.34;-1.39;-44.1;288.01;-11.74;-3.52;5.0;;;;NaN;;;;0 / 0;219030;2022-01-06 16:22:51:643
-0.701;4.325;7.097;-0.9207;1.8488;9.5867;-0.1718;-0.1824;1.8252;20.4;-7.44;-42.36;276.96;-10.58;4.9;5.0;;;;NaN;;;;0 / 0;219529;2022-01-06 16:22:52:142
-2.003;2.946;10.637;0.997;2.8375;9.3341;1.6631;-0.0588;3.2535;19.14;-7.69;-43.01;275.93;-14.16;-4.75;5.0;;;;NaN;;;;0 / 0;220030;2022-01-06 16:22:52:643
-0.067;3.947;4.8611;-0.303;2.4386;9.4938;-0.2986;-1.5503;4.6566;20.51;-8.81;-41.29;275.19;-14.14;4.16;5.0;;;;NaN;;;;0 / 0;220529;2022-01-06 16:22:53:142
-1.134;3.528;8.6;0.4674;2.4418;9.4863;0.8921;-0.6872;3.9483;20.4;-4.74;-42.06;283.66;-14.42;-2.82;5.0;;;;NaN;;;;0 / 0;221029;2022-01-06 16:22:53:642
0.21;3.284;6.084;-0.6848;2.1199;9.5503;0.0833;0.5497;3.5197;21.41;-7.31;-40.74;277.69;-12.64;4.0;5.0;;;;NaN;;;;0 / 0;221529;2022-01-06 16:22:54:142
-0.023;2.735;5.873;0.3331;2.0443;9.5854;1.1311;-0.0468;4.6623;22.86;-6.49;-40.99;275.86;-12.03;-1.99;5.0;;;;NaN;;;;0 / 0;222030;2022-01-06 16:22:54:643
-0.713;1.565;4.9331;-1.3332;2.0753;9.4914;-0.0889;1.1838;4.2605;23.21;-5.7;-40.86;284.39;-13.63;7.58;5.0;;;;NaN;;;;0 / 0;222529;2022-01-06 16:22:55:142
-0.2171;2.4101;5.0261;0.023;2.1979;9.5571;0.3449;0.6983;4.338;22.39;-6.96;-41.89;276.66;-12.95;-0.14;5.0;;;;NaN;;;;0 / 0;223030;2022-01-06 16:22:55:643
-0.0739;1.299;6.821;-0.9445;1.7138;9.6094;-0.4354;1.3056;2.4695;21.96;-3.6;-43.39;289.1;-12.9;5.58;5.0;;;;NaN;;;;0 / 0;223530;2022-01-06 16:22:56:143
-0.3851;1.833;4.437;0.5652;2.0541;9.5724;0.0694;0.6308;2.466;18.0;-6.41;-44.34;282.29;-13.44;-1.95;5.0;;;;NaN;;;;0 / 0;224029;2022-01-06 16:22:56:642
-0.72;0.2291;7.5491;-0.6976;2.5456;9.4448;-0.0309;2.2858;1.9071;22.61;-8.34;-40.99;279.71;-15.45;3.19;5.0;;;;NaN;;;;0 / 0;224529;2022-01-06 16:22:57:142
0.318;1.8641;5.354;0.2148;2.5398;9.4696;-1.3924;0.524;2.9727;19.09;-7.74;-43.09;279.37;-15.01;-1.3;5.0;;;;NaN;;;;0 / 0;225029;2022-01-06 16:22:57:642
-0.222;0.6551;10.115;-0.8168;2.2013;9.5214;-0.5026;1.7796;0.8057;21.9;-4.44;-41.29;292.58;-14.91;3.08;5.0;;;;NaN;;;;0 / 0;225529;2022-01-06 16:22:58:142
0.605;0.4661;6.668;-0.1737;2.5439;9.4694;-0.1201;3.0801;-3.7461;20.21;-9.71;-41.04;277.24;-14.75;3.09;5.0;;;;NaN;;;;0 / 0;226029;2022-01-06 16:22:58:642
-0.883;2.0531;7.6211;-0.6485;2.7743;9.3837;0.1752;0.6733;1.7834;22.2;-5.46;-39.49;290.16;-17.58;2.92;5.0;;;;NaN;;;;0 / 0;226530;2022-01-06 16:22:59:143
-0.22;-0.677;14.579;-0.1602;2.8749;9.3744;-2.4238;0.4061;-2.3058;20.7;-6.6;-37.99;282.61;-17.05;0.98;5.0;;;;NaN;;;;0 / 0;227029;2022-01-06 16:22:59:642
-3.116;0.7031;10.704;-0.1685;3.0223;9.3278;0.9573;0.3485;-6.4009;19.56;-2.16;-37.44;292.38;-17.37;-2.44;5.0;;;;NaN;;;;0 / 0;227529;2022-01-06 16:23:00:142
2.0081;3.327;12.341;-0.3664;3.259;9.242;-1.3265;1.6183;-6.3885;16.14;-5.29;-37.86;298.24;-18.44;2.98;5.0;;;;NaN;;;;0 / 0;228029;2022-01-06 16:23:00:642
0.0281;2.513;12.5231;-0.4949;3.0983;9.2912;-0.0181;0.2925;-0.2022;17.4;-2.21;-38.21;302.02;-19.07;0.2;5.0;;;;NaN;;;;0 / 0;228529;2022-01-06 16:23:01:142
0.84;2.115;12.494;0.8948;2.0104;9.5566;-0.2331;-1.0989;-4.1352;9.66;-1.8;-42.0;304.03;-11.64;-3.25;5.0;;;;NaN;;;;0 / 0;229030;2022-01-06 16:23:01:643
-0.591;1.223;13.8611;0.2772;1.3587;9.7081;0.8628;0.1465;-4.1438;18.96;0.24;-39.9;284.53;-8.29;-3.69;5.0;;;;NaN;;;;0 / 0;229530;2022-01-06 16:23:02:143
0.6551;2.19;12.683;-0.1316;1.1451;9.7387;-0.6714;-0.9286;-2.241;16.39;-6.84;-41.29;257.65;-5.36;2.7;5.0;;;;NaN;;;;0 / 0;230030;2022-01-06 16:23:02:643
-0.519;1.821;12.47;0.6593;1.1494;9.7167;1.1211;-0.5079;-2.7618;17.1;-9.41;-39.24;254.96;-5.62;-3.83;5.0;;;;NaN;;;;0 / 0;230530;2022-01-06 16:23:03:143
2.594;2.199;12.557;0.295;2.1704;9.5589;-2.3882;-0.2404;-2.4815;13.61;-15.71;-37.86;238.31;-11.03;0.57;5.0;;;;NaN;;;;0 / 0;231030;2022-01-06 16:23:03:643
1.026;3.4631;11.0201;0.9847;2.0423;9.541;-0.4166;-1.6853;2.3687;15.11;-15.71;-36.49;243.43;-8.72;-5.24;5.0;;;;NaN;;;;0 / 0;231530;2022-01-06 16:23:04:143
1.4261;4.109;9.7991;0.6697;2.5032;9.4581;-1.2617;-1.1894;2.3616;15.06;-14.46;-37.91;252.27;-13.54;-3.76;5.0;;;;NaN;;;;0 / 0;232029;2022-01-06 16:23:04:642
1.0931;4.2701;8.207;1.7753;2.2086;9.3883;0.6025;-1.0827;2.2989;17.1;-13.91;-37.99;255.7;-12.86;-10.4;5.0;;;;NaN;;;;0 / 0;232529;2022-01-06 16:23:05:142
2.0171;4.349;9.3611;0.3605;3.0803;9.3033;-1.1921;-0.4185;4.8716;17.81;-13.86;-38.46;261.58;-16.44;-2.76;5.0;;;;NaN;;;;0 / 0;233030;2022-01-06 16:23:05:643
1.338;3.951;5.208;1.9577;2.4792;9.2839;0.6545;-1.4208;4.0608;14.51;-12.79;-41.29;263.98;-15.73;-11.04;5.0;;;;NaN;;;;0 / 0;233530;2022-01-06 16:23:06:143
1.716;2.64;5.4641;1.3785;2.5339;9.3728;-0.4875;0.2865;3.3662;14.16;-12.66;-42.41;263.29;-14.97;-8.37;5.0;;;;NaN;;;;0 / 0;234029;2022-01-06 16:23:06:642
1.8;2.034;5.9741;2.4644;1.962;9.287;-0.1775;0.7304;2.7085;13.44;-12.41;-43.86;267.12;-15.33;-14.74;5.0;;;;NaN;;;;0 / 0;234529;2022-01-06 16:23:07:142
2.522;1.689;6.627;1.4018;2.1939;9.4547;-1.118;0.505;2.8353;10.74;-10.86;-45.36;271.78;-14.37;-11.68;5.0;;;;NaN;;;;0 / 0;235030;2022-01-06 16:23:07:643
1.551;2.79;6.264;2.488;2.6639;9.1041;1.1805;-0.0738;2.3484;10.61;-13.14;-44.21;269.36;-17.82;-15.71;5.0;;;;NaN;;;;0 / 0;235529;2022-01-06 16:23:08:142
-0.196;0.746;8.5541;1.2831;1.3898;9.6225;1.5084;1.1448;1.1611;14.51;-0.11;-44.29;288.19;-10.46;-10.09;5.0;;;;NaN;;;;0 / 0;236029;2022-01-06 16:23:08:642
-0.5861;-0.505;7.748;0.1969;0.6232;9.7849;1.65;0.3026;3.2443;16.61;4.99;-41.81;297.37;-5.52;-0.52;5.0;;;;NaN;;;;0 / 0;236529;2022-01-06 16:23:09:142
-0.361;-0.66;10.347;-0.2781;0.3002;9.7981;0.7649;1.673;1.5294;16.39;7.5;-40.09;301.86;-1.75;1.63;5.0;;;;NaN;;;;0 / 0;237029;2022-01-06 16:23:09:642
1.148;0.416;9.8591;-0.3363;-0.1959;9.7989;0.304;1.681;0.8067;16.86;2.34;-40.2;275.41;0.82;2.86;5.0;;;;NaN;;;;0 / 0;237530;2022-01-06 16:23:10:143
-2.568;0.378;8.078;-0.31;1.1489;9.7342;1.4088;0.2295;-1.3025;18.3;-1.26;-38.29;279.46;-5.7;1.58;5.0;;;;NaN;;;;0 / 0;238029;2022-01-06 16:23:10:642
1.689;-1.026;12.2;-0.1804;1.0949;9.7437;-2.8262;0.9053;-0.9855;15.6;0.0;-39.96;288.51;-6.85;2.2;5.0;;;;NaN;;;;0 / 0;238529;2022-01-06 16:23:11:142
-2.582;-0.615;12.8321;-0.074;1.4275;9.7019;1.506;0.0382;-1.0445;20.1;1.69;-38.81;291.29;-8.37;0.44;5.0;;;;NaN;;;;0 / 0;239030;2022-01-06 16:23:11:643
1.6151;1.79;9.1601;-0.1108;1.3784;9.7087;-1.7662;-0.4073;0.5553;17.1;-0.96;-41.04;288.82;-7.24;2.23;5.0;;;;NaN;;;;0 / 0;239530;2022-01-06 16:23:12:143
-2.08;0.488;14.352;-0.6151;1.2107;9.7122;1.2178;0.6711;-4.6404;20.4;4.31;-38.21;294.28;-7.31;0.64;5.0;;;;NaN;;;;0 / 0;240030;2022-01-06 16:23:12:643
-1.029;1.1051;14.957;-0.2971;1.5392;9.6806;-0.1745;-0.9942;-4.4982;17.29;-3.06;-39.06;276.06;-5.14;4.11;5.0;;;;NaN;;;;0 / 0;240529;2022-01-06 16:23:13:142
-2.034;2.903;11.621;0.6446;2.1663;9.5426;1.5688;-1.1462;-3.7503;19.69;-3.36;-37.8;282.89;-12.76;-3.86;5.0;;;;NaN;;;;0 / 0;241030;2022-01-06 16:23:13:643
-1.1171;0.708;13.878;-0.1916;1.6728;9.661;-0.1099;-0.7108;-4.1909;19.09;-2.16;-38.1;284.08;-9.82;1.14;5.0;;;;NaN;;;;0 / 0;241529;2022-01-06 16:23:14:142
-2.451;1.278;15.146;-0.2753;1.6824;9.6573;0.1559;-0.8518;-4.4865;21.96;1.86;-38.04;281.56;-5.35;-0.2;5.0;;;;NaN;;;;0 / 0;242029;2022-01-06 16:23:14:642
1.139;2.384;14.649;-0.1803;1.103;9.7427;-1.2428;-1.1816;-4.9098;20.89;-0.24;-39.9;280.03;-4.87;2.05;5.0;;;;NaN;;;;0 / 0;242529;2022-01-06 16:23:15:142
-1.419;2.099;11.5781;0.2433;1.307;9.7161;1.5916;-0.6849;-1.8745;20.94;2.4;-39.71;288.22;-7.66;-1.43;5.0;;;;NaN;;;;0 / 0;243030;2022-01-06 16:23:15:643
0.081;2.594;15.956;-0.3944;1.4017;9.6979;-0.5987;-1.6357;-2.86;20.89;-0.54;-39.36;280.67;-6.31;3.97;5.0;;;;NaN;;;;0 / 0;243529;2022-01-06 16:23:16:142
-1.8431;2.714;12.186;0.0204;1.4094;9.7048;0.4323;-1.5415;2.394;18.19;2.51;-39.49;286.57;-6.49;-0.65;5.0;;;;NaN;;;;0 / 0;244029;2022-01-06 16:23:16:642
0.5501;3.231;8.4971;-0.8507;1.204;9.6952;-1.3365;-2.0166;1.2138;18.11;-0.54;-38.1;286.48;-7.47;5.8;5.0;;;;NaN;;;;0 / 0;244529;2022-01-06 16:23:17:142
-1.18;2.276;7.755;0.5628;0.9285;9.7464;0.9004;-0.6391;2.7882;17.81;2.89;-37.2;283.74;-5.76;-2.93;5.0;;;;NaN;;;;0 / 0;245029;2022-01-06 16:23:17:642
0.0671;3.032;7.271;-1.0364;0.7011;9.7265;-0.8457;-1.1104;3.9787;18.41;0.71;-38.64;285.84;-4.1;6.08;5.0;;;;NaN;;;;0 / 0;245529;2022-01-06 16:23:18:142
-0.083;1.9241;6.474;0.0037;0.8471;9.77;0.7392;-0.5013;4.39;18.06;-0.6;-41.51;281.22;-6.1;0.56;5.0;;;;NaN;;;;0 / 0;246029;2022-01-06 16:23:18:642
-0.4061;1.572;7.745;-0.8455;1.2731;9.6868;-0.2295;0.8814;2.585;21.11;-1.09;-40.74;286.38;-8.26;4.85;5.0;;;;NaN;;;;0 / 0;246530;2022-01-06 16:23:19:143
-0.868;1.4621;5.27;0.3918;0.8108;9.7652;1.2226;-0.7424;4.5163;18.11;1.26;-42.9;286.54;-6.31;-1.44;5.0;;;;NaN;;;;0 / 0;247029;2022-01-06 16:23:19:642
-0.177;0.315;6.1301;-0.8714;1.2325;9.6898;-1.0928;0.7671;2.3152;20.51;0.11;-41.76;289.82;-8.62;3.99;5.0;;;;NaN;;;;0 / 0;247530;2022-01-06 16:23:20:143
-0.49;1.4291;4.763;0.073;1.3942;9.7068;0.3123;-0.4209;4.1497;17.94;-1.2;-43.31;285.82;-10.37;2.2;5.0;;;;NaN;;;;0 / 0;248029;2022-01-06 16:23:20:642
-0.54;-0.3491;9.126;-0.5265;1.6199;9.6576;-0.0994;1.2376;0.0924;20.51;-0.9;-42.36;288.17;-9.51;3.12;5.0;;;;NaN;;;;0 / 0;248529;2022-01-06 16:23:21:142
1.826;1.0961;9.746;-0.1955;1.5161;9.6868;-0.4271;1.5842;-0.7056;19.39;-2.89;-43.01;281.66;-8.89;1.16;5.0;;;;NaN;;;;0 / 0;249029;2022-01-06 16:23:21:642
-0.2269;0.603;9.921;-0.4355;1.8354;9.6235;1.1828;0.7289;1.8656;20.1;-0.24;-42.36;293.87;-11.36;1.47;5.0;;;;NaN;;;;0 / 0;249529;2022-01-06 16:23:22:142
2.1131;0.059;8.571;-0.386;1.8766;9.6177;-1.0358;2.6694;-0.3392;17.21;-1.86;-43.5;292.72;-11.03;2.3;5.0;;;;NaN;;;;0 / 0;250029;2022-01-06 16:23:22:642
-2.178;-0.4039;9.545;0.3028;2.0343;9.5885;2.4244;2.307;-3.5454;15.11;1.01;-43.09;300.91;-12.87;-3.09;5.0;;;;NaN;;;;0 / 0;250530;2022-01-06 16:23:23:143
0.5021;-1.019;8.1161;0.3069;2.1406;9.5653;-0.063;3.2125;-1.5046;13.8;-3.19;-42.11;292.0;-12.15;-0.72;5.0;;;;NaN;;;;0 / 0;251029;2022-01-06 16:23:23:642
-2.2781;0.1931;16.638;0.0408;2.0138;9.5976;1.6344;0.5156;-2.293;16.91;1.86;-39.71;298.02;-11.63;-2.27;5.0;;;;NaN;;;;0 / 0;251529;2022-01-06 16:23:24:142
-0.5809;-1.6609;15.5291;0.0119;2.5124;9.4794;-0.6963;2.8665;-5.9661;16.5;-3.19;-39.79;293.45;-14.31;1.05;5.0;;;;NaN;;;;0 / 0;252029;2022-01-06 16:23:24:642
-1.113;2.2091;11.01;-0.0839;2.1086;9.5769;0.9299;-0.1058;-1.4278;19.14;2.51;-40.44;299.65;-12.3;-1.36;5.0;;;;NaN;;;;0 / 0;252529;2022-01-06 16:23:25:142
-0.761;2.448;13.533;-0.3433;1.9894;9.5966;0.2152;-0.7755;-2.0488;20.04;-1.14;-41.21;291.99;-11.7;2.05;5.0;;;;NaN;;;;0 / 0;253030;2022-01-06 16:23:25:643
-2.5151;1.728;15.74;-0.2232;1.6297;9.6677;2.0663;0.0811;-6.101;20.46;2.29;-41.34;290.51;-6.79;0.1;5.0;;;;NaN;;;;0 / 0;253530;2022-01-06 16:23:26:143
-1.012;3.092;9.758;-0.7281;1.6048;9.647;0.2798;-1.487;-0.1052;20.34;-1.31;-41.46;289.44;-9.42;4.32;5.0;;;;NaN;;;;0 / 0;254030;2022-01-06 16:23:26:643
-0.43;2.2931;16.1111;-0.2392;1.6661;9.6611;0.3965;-1.1446;-1.775;21.06;0.41;-40.26;284.25;-7.17;1.53;5.0;;;;NaN;;;;0 / 0;254529;2022-01-06 16:23:27:142
0.0191;3.444;12.2261;-0.9477;1.3314;9.6695;-0.6823;-3.1049;2.7503;22.99;-3.54;-38.81;271.68;-6.34;5.65;5.0;;;;NaN;;;;0 / 0;255029;2022-01-06 16:23:27:642
-1.4141;2.558;10.371;0.5142;1.5152;9.6752;1.9211;-0.9116;-0.7097;24.3;0.6;-38.81;282.71;-7.08;-1.88;5.0;;;;NaN;;;;0 / 0;255530;2022-01-06 16:23:28:143
0.2561;2.427;6.029;-1.1735;1.3947;9.6358;-1.133;-1.5223;3.6889;24.3;0.0;-39.49;287.21;-8.18;6.94;5.0;;;;NaN;;;;0 / 0;256030;2022-01-06 16:23:28:643
-1.35;2.115;10.9601;0.4013;1.4084;9.6967;0.6198;-0.9887;1.597;21.49;4.86;-41.29;292.94;-8.93;-1.62;5.0;;;;NaN;;;;0 / 0;256530;2022-01-06 16:23:29:143
-0.497;2.676;5.459;-0.965;1.2761;9.6753;0.1335;0.774;3.389;22.26;0.24;-40.5;286.95;-7.48;5.7;5.0;;;;NaN;;;;0 / 0;257030;2022-01-06 16:23:29:643
-0.423;2.781;7.314;0.137;1.3278;9.7154;1.0768;-0.2249;3.3138;20.29;3.96;-42.19;298.05;-9.1;0.14;5.0;;;;NaN;;;;0 / 0;257529;2022-01-06 16:23:30:142
-0.205;2.2061;6.788;-1.2629;1.1651;9.6549;-0.8815;-0.2786;4.1932;21.36;1.26;-41.1;293.22;-7.68;7.08;5.0;;;;NaN;;;;0 / 0;258029;2022-01-06 16:23:30:642
-0.835;1.479;6.1301;0.0339;1.477;9.6947;-0.2385;-0.2528;2.8437;18.79;2.94;-42.96;295.94;-10.01;0.72;5.0;;;;NaN;;;;0 / 0;258529;2022-01-06 16:23:31:142
0.2651;1.7231;5.16;-0.4795;1.0551;9.7379;-0.7616;0.4616;2.9709;17.59;1.01;-43.26;301.66;-9.87;1.85;5.0;;;;NaN;;;;0 / 0;259029;2022-01-06 16:23:31:642
0.284;1.8521;5.256;0.4975;1.6254;9.6582;-0.415;-0.0907;2.7935;16.61;-3.54;-43.39;286.08;-12.42;-1.59;5.0;;;;NaN;;;;0 / 0;259529;2022-01-06 16:23:32:142
-0.588;-0.0859;5.826;-0.7251;1.593;9.6492;-0.0168;1.8791;1.1365;21.19;-2.64;-41.64;282.97;-9.35;4.3;5.0;;;;NaN;;;;0 / 0;260029;2022-01-06 16:23:32:642
2.003;2.154;6.783;0.0919;1.6811;9.661;-1.752;-0.699;2.9122;16.86;-2.4;-43.39;287.15;-9.87;-0.54;5.0;;;;NaN;;;;0 / 0;260529;2022-01-06 16:23:33:142
0.2081;0.6701;11.4101;-0.4724;1.8877;9.6116;0.3039;0.0217;4.2589;21.71;-3.49;-41.04;283.75;-11.6;0.31;5.0;;;;NaN;;;;0 / 0;261029;2022-01-06 16:23:33:642
1.625;0.617;7.341;-0.5356;2.195;9.5428;0.2544;3.6524;-1.0674;18.66;-1.56;-42.71;297.33;-14.26;4.14;5.0;;;;NaN;;;;0 / 0;261530;2022-01-06 16:23:34:143
-0.495;0.045;10.443;-1.4282;1.5861;9.5716;1.4287;1.9108;1.6813;22.86;1.14;-40.31;298.41;-11.42;5.57;5.0;;;;NaN;;;;0 / 0;262030;2022-01-06 16:23:34:643
0.569;-0.4999;9.3371;-0.4629;1.792;9.6304;-0.0271;2.7454;-1.5928;20.04;-2.59;-41.89;287.13;-11.23;3.16;5.0;;;;NaN;;;;0 / 0;262529;2022-01-06 16:23:35:142
-1.122;0.5861;14.933;-0.4683;1.8171;9.6255;-0.4278;-0.6496;-1.0248;20.04;0.54;-41.34;295.2;-10.5;2.39;5.0;;;;NaN;;;;0 / 0;263029;2022-01-06 16:23:35:642
-0.1241;-0.926;13.7051;-0.3555;1.6833;9.6546;-1.8927;0.9802;-1.3618;18.0;-0.24;-41.64;293.99;-9.88;2.11;5.0;;;;NaN;;;;0 / 0;263529;2022-01-06 16:23:36:142
-1.874;1.275;15.398;0.0729;1.8118;9.6375;1.7313;0.5191;-5.7492;19.69;3.49;-40.26;296.92;-10.65;-0.43;5.0;;;;NaN;;;;0 / 0;264029;2022-01-06 16:23:36:642
1.6271;1.338;11.5511;-0.4979;1.2623;9.7123;-0.1278;0.0445;-5.9507;16.86;-0.41;-40.74;289.21;-6.5;4.51;5.0;;;;NaN;;;;0 / 0;264529;2022-01-06 16:23:37:142
-2.259;1.8041;12.9161;0.1886;1.5495;9.6816;0.7456;-0.9723;-4.078;18.71;2.21;-40.26;289.84;-8.1;-2.55;5.0;;;;NaN;;;;0 / 0;265029;2022-01-06 16:23:37:642
0.473;1.6391;13.176;0.053;2.0594;9.5878;-0.124;0.4931;-4.5501;18.19;-4.91;-41.4;277.68;-10.13;0.9;5.0;;;;NaN;;;;0 / 0;265529;2022-01-06 16:23:38:142
-1.397;1.991;15.266;0.1427;2.0966;9.5789;1.4217;0.1597;-5.6864;21.0;0.11;-39.54;291.45;-12.34;-0.85;5.0;;;;NaN;;;;0 / 0;266029;2022-01-06 16:23:38:642
0.155;1.7711;14.354;-0.0666;1.4183;9.7033;-0.2573;-0.5022;-4.135;19.8;-0.6;-41.04;282.01;-6.87;1.77;5.0;;;;NaN;;;;0 / 0;266529;2022-01-06 16:23:39:142
-0.363;2.175;13.6001;0.6674;1.2622;9.7022;1.2939;-0.9443;-2.3927;19.26;4.8;-40.8;291.54;-5.26;-3.99;5.0;;;;NaN;;;;0 / 0;267029;2022-01-06 16:23:39:642
-0.45;2.759;12.221;-0.7177;0.7795;9.7492;-0.1846;-2.5;1.7494;19.09;2.7;-41.4;291.73;-4.56;4.21;5.0;;;;NaN;;;;0 / 0;267529;2022-01-06 16:23:40:142
-0.7181;2.082;9.885;0.5384;1.4596;9.6825;0.6065;-0.6516;-1.5543;18.11;3.6;-41.89;292.94;-6.41;-3.04;5.0;;;;NaN;;;;0 / 0;268029;2022-01-06 16:23:40:642
1.3331;3.24;7.58;-0.3519;1.35;9.7069;-1.6617;-1.8395;2.129;16.01;0.41;-43.14;293.93;-8.93;1.14;5.0;;;;NaN;;;;0 / 0;268529;2022-01-06 16:23:41:142
0.54;2.81;6.144;1.1112;1.3538;9.649;-0.0995;-0.6781;5.0743;16.14;-1.61;-42.96;281.05;-7.92;-4.38;5.0;;;;NaN;;;;0 / 0;269030;2022-01-06 16:23:41:643
0.038;2.8361;6.735;-0.3393;1.6233;9.6654;0.1298;0.2652;1.6834;18.0;-2.64;-41.46;286.46;-11.0;1.63;5.0;;;;NaN;;;;0 / 0;269529;2022-01-06 16:23:42:142
-0.8209;1.778;5.72;0.9383;1.6039;9.629;1.7597;-0.2401;3.9336;14.81;-1.14;-42.66;286.82;-9.41;-5.57;5.0;;;;NaN;;;;0 / 0;270029;2022-01-06 16:23:42:642
-0.0139;2.118;5.141;-0.434;1.0924;9.736;-0.039;-0.4331;4.3014;16.39;-1.91;-42.54;284.73;-7.66;1.96;5.0;;;;NaN;;;;0 / 0;270529;2022-01-06 16:23:43:142
0.102;1.788;6.45;0.5002;1.433;9.6885;-0.7308;-0.2593;3.5121;16.74;-8.1;-41.94;266.35;-9.34;-1.34;5.0;;;;NaN;;;;0 / 0;271030;2022-01-06 16:23:43:643
-0.4451;0.21;6.024;-0.4391;1.7263;9.6435;0.0651;2.2436;-0.5963;19.56;-7.14;-40.86;274.42;-11.51;1.81;5.0;;;;NaN;;;;0 / 0;271529;2022-01-06 16:23:44:142
0.533;1.742;5.84;0.0636;1.7759;9.6443;-1.8385;-1.0168;1.7699;20.1;-10.09;-42.54;267.39;-11.89;0.36;5.0;;;;NaN;;;;0 / 0;272029;2022-01-06 16:23:44:642
-0.368;-0.019;9.359;-0.1833;2.2118;9.5522;2.0194;2.7722;0.6742;24.24;-8.64;-42.84;274.49;-14.36;-0.35;5.0;;;;NaN;;;;0 / 0;272529;2022-01-06 16:23:45:142
0.6941;-0.0641;7.508;0.1404;1.6388;9.6677;0.4673;2.4151;-0.1525;19.39;-12.3;-41.7;257.07;-10.2;-0.09;5.0;;;;NaN;;;;0 / 0;273029;2022-01-06 16:23:45:642
-2.5391;-0.296;12.434;-0.3934;2.1125;9.5683;2.14;2.3986;-2.8534;21.9;-10.8;-39.84;264.52;-12.3;-0.33;5.0;;;;NaN;;;;0 / 0;273529;2022-01-06 16:23:46:142
-1.0001;-1.1681;11.8121;-0.1727;1.7889;9.6406;-0.4991;2.3771;-4.0449;18.71;-15.24;-38.46;247.05;-10.51;1.03;5.0;;;;NaN;;;;0 / 0;274029;2022-01-06 16:23:46:642
-1.3451;2.0171;12.114;-0.1649;1.6538;9.6648;1.1348;-0.3465;-2.447;19.69;-13.39;-38.1;251.83;-9.71;0.98;5.0;;;;NaN;;;;0 / 0;274530;2022-01-06 16:23:47:143
0.7031;-0.7391;16.592;-0.0877;1.834;9.6332;-1.9151;0.4237;-3.0193;14.1;-13.44;-36.19;244.2;-10.25;1.44;5.0;;;;NaN;;;;0 / 0;275030;2022-01-06 16:23:47:643
-0.945;2.178;9.842;-0.0601;1.5166;9.6885;1.5925;-0.7402;-4.5036;11.04;-15.9;-33.3;227.9;-7.66;-3.12;5.0;;;;NaN;;;;0 / 0;275529;2022-01-06 16:23:48:142
-0.9229;1.239;14.2871;-0.3041;1.6709;9.6585;0.5537;0.3833;-4.6071;14.64;-22.31;-33.24;218.42;-8.35;2.77;5.0;;;;NaN;;;;0 / 0;276029;2022-01-06 16:23:48:642
-2.5391;2.984;15.458;-1.0E-4;1.7073;9.6569;1.2597;-1.2364;-4.0291;18.36;-17.4;-33.19;237.09;-7.96;-1.9;5.0;;;;NaN;;;;0 / 0;276529;2022-01-06 16:23:49:142
1.421;5.8661;7.389;-0.7259;2.6574;9.4118;-0.7395;-2.1369;4.0181;14.81;-34.91;-21.79;205.8;-15.72;4.41;5.0;;;;NaN;;;;0 / 0;277029;2022-01-06 16:23:49:642
-4.552;3.975;12.0161;0.8412;4.5934;8.6234;2.5846;-0.5006;-1.442;16.56;-29.7;-27.19;235.15;-29.44;-6.48;5.0;;;;NaN;;;;0 / 0;277529;2022-01-06 16:23:50:142
-0.911;3.6521;8.262;0.0849;2.4395;9.498;0.9834;-1.4861;1.0936;12.6;-24.24;-33.9;221.92;-14.4;-0.51;5.0;;;;NaN;;;;0 / 0;278030;2022-01-06 16:23:50:643
-0.7939;5.648;10.587;0.1257;2.9242;9.3597;2.1065;-1.3166;2.0497;16.56;-24.6;-29.4;223.41;-14.58;-2.07;5.0;;;;NaN;;;;0 / 0;278529;2022-01-06 16:23:51:142
-1.548;4.2551;6.551;-0.9373;3.8004;8.9916;-0.6093;0.5091;4.0199;15.9;-26.94;-26.4;224.9;-22.5;5.65;5.0;;;;NaN;;;;0 / 0;279029;2022-01-06 16:23:51:642
0.062;6.06;8.76;0.3457;4.1318;8.887;1.3945;1.1762;2.9622;14.76;-31.14;-25.26;221.91;-25.42;-1.51;5.0;;;;NaN;;;;0 / 0;279529;2022-01-06 16:23:52:142
-0.05;4.7291;5.3111;-0.8422;5.3674;8.1641;-1.019;0.6763;3.3865;14.04;-37.01;-20.94;212.13;-33.18;5.89;5.0;;;;NaN;;;;0 / 0;280029;2022-01-06 16:23:52:642
-0.447;5.318;4.626;0.5;5.8116;7.8832;0.9019;1.6395;3.5374;14.1;-36.96;-22.5;222.54;-37.09;-3.9;5.0;;;;NaN;;;;0 / 0;280530;2022-01-06 16:23:53:143
-0.021;4.047;4.131;-0.5159;5.9356;7.7893;-0.492;1.806;3.7265;13.69;-37.5;-22.5;222.86;-39.81;2.79;5.0;;;;NaN;;;;0 / 0;281029;2022-01-06 16:23:53:642
-0.519;4.011;4.1501;0.2935;6.0977;7.6747;0.9746;2.2977;2.5263;10.91;-39.49;-21.84;216.42;-40.03;-2.08;5.0;;;;NaN;;;;0 / 0;281530;2022-01-06 16:23:54:143
-0.832;2.783;4.449;-0.2181;5.8607;7.8597;0.6113;2.929;2.7814;11.34;-37.31;-25.8;220.25;-39.33;-0.02;5.0;;;;NaN;;;;0 / 0;282029;2022-01-06 16:23:54:642
-0.485;3.446;6.345;0.1292;5.0849;8.3844;0.6706;1.5669;2.0929;9.66;-37.44;-27.3;210.45;-31.23;-0.88;5.0;;;;NaN;;;;0 / 0;282529;2022-01-06 16:23:55:142
-0.368;3.027;6.051;-0.7857;5.1404;8.3144;-0.4582;2.0553;2.3007;12.24;-38.46;-24.66;210.5;-33.46;3.81;5.0;;;;NaN;;;;0 / 0;283029;2022-01-06 16:23:55:642
0.3491;3.4151;5.768;0.1195;4.7143;8.5983;-1.571;0.7769;1.1994;7.99;-37.61;-27.49;201.97;-30.21;0.52;5.0;;;;NaN;;;;0 / 0;283530;2022-01-06 16:23:56:143
-0.057;2.9531;8.765;-0.7736;4.6881;8.5787;-0.7584;1.6624;-0.1376;12.19;-36.24;-27.66;207.97;-28.56;5.15;5.0;;;;NaN;;;;0 / 0;284029;2022-01-06 16:23:56:642
0.701;4.703;9.009;-0.2071;4.9454;8.4658;-0.9462;0.3148;-1.3677;10.09;-39.0;-24.06;203.68;-30.28;1.4;5.0;;;;NaN;;;;0 / 0;284529;2022-01-06 16:23:57:142
-0.7421;3.396;7.566;-0.7581;5.5203;8.0698;0.0815;1.4582;-2.5233;10.61;-37.74;-25.44;212.43;-36.88;3.27;5.0;;;;NaN;;;;0 / 0;285030;2022-01-06 16:23:57:643
1.484;4.605;9.368;-0.1652;4.9093;8.4877;-1.6362;0.3057;-0.8694;6.36;-37.99;-26.59;194.64;-30.96;2.43;5.0;;;;NaN;;;;0 / 0;285530;2022-01-06 16:23:58:143
-0.761;3.389;10.055;-0.7401;4.9255;8.4476;0.9427;0.4108;-2.1632;8.81;-37.61;-26.51;201.0;-31.35;4.31;5.0;;;;NaN;;;;0 / 0;286029;2022-01-06 16:23:58:642
2.2931;5.055;8.009;-0.3202;5.0853;8.379;-0.1586;-1.5055;-0.5449;4.69;-39.71;-24.24;190.66;-31.24;2.19;5.0;;;;NaN;;;;0 / 0;286530;2022-01-06 16:23:59:143
-1.1891;3.918;9.4691;-0.7489;5.355;8.1813;1.9351;0.4173;-2.4553;10.14;-39.6;-23.76;203.59;-33.85;3.46;5.0;;;;NaN;;;;0 / 0;287029;2022-01-06 16:23:59:642
0.816;5.261;9.332;-0.871;5.0816;8.342;-1.6101;-0.2145;-0.958;7.99;-38.46;-26.16;194.11;-31.23;7.21;5.0;;;;NaN;;;;0 / 0;287529;2022-01-06 16:24:00:142
-0.339;7.671;9.423;-0.5443;4.9762;8.4327;0.1549;-2.6655;2.3973;8.51;-38.34;-26.64;201.46;-29.78;2.92;5.0;;;;NaN;;;;0 / 0;288030;2022-01-06 16:24:00:643
2.7161;3.303;15.374;-0.1081;4.886;8.5021;-2.8315;0.3235;-1.9386;1.86;-36.19;-29.21;185.56;-29.88;0.73;5.0;;;;NaN;;;;0 / 0;288530;2022-01-06 16:24:01:143
-2.053;1.5461;17.61;-0.0919;3.0893;9.3069;2.7065;2.0531;-5.1234;4.5;-29.51;-36.19;195.18;-18.36;0.57;5.0;;;;NaN;;;;0 / 0;289029;2022-01-06 16:24:01:642
3.59;4.0541;10.539;-0.1661;2.5101;9.4785;-1.5983;-1.6851;-0.935;1.5;-30.24;-34.8;182.36;-14.16;1.89;5.0;;;;NaN;;;;0 / 0;289529;2022-01-06 16:24:02:142
1.3901;5.009;10.745;-0.5331;2.3709;9.5008;0.2521;-2.5617;-1.6227;4.26;-28.39;-36.79;187.65;-13.5;2.33;5.0;;;;NaN;;;;0 / 0;290029;2022-01-06 16:24:02:642
-1.0099;-1.503;17.564;0.0427;2.0651;9.5866;0.2275;-0.6304;-5.8399;-1.39;-28.74;-35.94;175.94;-11.19;0.84;5.0;;;;NaN;;;;0 / 0;290529;2022-01-06 16:24:03:142
-3.056;1.5;12.894;-0.2365;2.2747;9.5363;0.2176;-2.2977;-2.8837;2.89;-29.29;-34.5;186.92;-12.25;0.73;5.0;;;;NaN;;;;0 / 0;291030;2022-01-06 16:24:03:643
2.324;3.501;9.576;-0.1289;2.1817;9.56;-0.5375;-0.556;0.3254;-1.26;-28.86;-31.69;175.44;-12.51;1.26;5.0;;;;NaN;;;;0 / 0;291530;2022-01-06 16:24:04:143
0.794;5.993;8.873;0.2283;2.0943;9.5777;2.9932;-1.8011;-2.9394;0.6;-25.86;-25.91;187.01;-11.58;-3.29;5.0;;;;NaN;;;;0 / 0;292030;2022-01-06 16:24:04:643
-1.1629;0.72;14.886;-0.325;1.8348;9.628;-0.5818;0.5012;-1.3726;-2.94;-22.8;-31.14;166.48;-10.78;1.93;5.0;;;;NaN;;;;0 / 0;292529;2022-01-06 16:24:05:142
-2.295;1.5191;16.8341;-0.0376;2.0113;9.5981;1.9003;-1.079;-4.1468;-1.99;-24.79;-36.11;184.85;-11.21;-3.69;5.0;;;;NaN;;;;0 / 0;293029;2022-01-06 16:24:05:642
1.1081;1.1321;15.2111;-0.2572;2.2662;9.5377;-1.314;1.1288;-5.6598;-7.56;-26.1;-37.26;151.37;-12.81;2.18;5.0;;;;NaN;;;;0 / 0;293529;2022-01-06 16:24:06:142
0.093;4.004;10.814;-0.1979;2.0189;9.5945;2.458;0.3845;-5.0201;-7.09;-28.74;-36.71;161.92;-11.96;0.08;5.0;;;;NaN;;;;0 / 0;294029;2022-01-06 16:24:06:642
2.592;1.8551;10.8671;-0.446;2.5603;9.456;-2.0396;-0.5179;1.2021;-14.29;-32.29;-34.39;144.35;-14.79;3.66;5.0;;;;NaN;;;;0 / 0;294529;2022-01-06 16:24:07:142
0.816;5.639;12.2;-0.3614;2.9333;9.3507;-0.0481;-2.8962;1.3964;-2.46;-34.39;-34.74;177.62;-15.75;-1.7;5.0;;;;NaN;;;;0 / 0;295030;2022-01-06 16:24:07:643
3.6311;2.178;13.052;-0.6818;2.4448;9.4725;-2.3909;-1.5024;0.0321;-4.56;-32.94;-34.56;159.52;-15.21;5.84;5.0;;;;NaN;;;;0 / 0;295530;2022-01-06 16:24:08:143
-3.75;-0.1;19.182;-0.8896;2.0532;9.5479;3.8775;2.9658;-6.1836;0.6;-31.74;-36.54;176.6;-12.89;3.66;5.0;;;;NaN;;;;0 / 0;296029;2022-01-06 16:24:08:642
-0.9;0.186;11.216;-0.2954;1.9068;9.615;1.1014;4.3719;-10.8435;-4.44;-29.81;-37.5;165.78;-11.81;2.38;5.0;;;;NaN;;;;0 / 0;296530;2022-01-06 16:24:09:143
-3.4969;-1.0571;18.8831;-0.444;2.2517;9.5343;2.2187;1.1683;0.1024;-0.96;-29.51;-38.04;173.61;-14.56;1.78;5.0;;;;NaN;;;;0 / 0;297029;2022-01-06 16:24:09:642
-0.0551;-0.186;14.378;-0.2403;1.9709;9.6035;-2.6594;-1.3859;-1.4759;-4.26;-29.04;-37.69;164.65;-11.92;2.49;5.0;;;;NaN;;;;0 / 0;297529;2022-01-06 16:24:10:142
-1.79;0.5021;16.92;-0.5299;1.8478;9.6164;1.1548;1.9139;-4.316;0.0;-30.6;-36.84;179.79;-10.64;1.68;5.0;;;;NaN;;;;0 / 0;298030;2022-01-06 16:24:10:643
-0.1721;0.335;12.695;-0.4868;1.9054;9.6074;-0.1629;-0.6033;-4.9691;-1.14;-29.7;-36.66;172.65;-11.2;2.9;5.0;;;;NaN;;;;0 / 0;298530;2022-01-06 16:24:11:143
1.043;3.1331;16.899;-0.4141;1.8294;9.6256;0.8312;-0.5608;-2.4718;-0.9;-28.09;-37.99;173.99;-11.23;1.68;5.0;;;;NaN;;;;0 / 0;299029;2022-01-06 16:24:11:642
2.247;2.036;11.4941;-0.0748;2.1508;9.5676;-2.2743;0.1372;-1.9177;-4.61;-28.61;-37.44;165.26;-11.54;0.83;5.0;;;;NaN;;;;0 / 0;299529;2022-01-06 16:24:12:142
-2.905;2.171;14.723;-0.6501;1.9293;9.593;2.2511;-0.2363;-5.117;-0.84;-27.24;-37.5;172.71;-11.43;2.25;5.0;;;;NaN;;;;0 / 0;300029;2022-01-06 16:24:12:642
1.4021;2.379;11.616;-0.1168;2.148;9.5678;-1.465;-0.1967;-2.042;-12.0;-26.7;-35.76;146.54;-10.37;2.43;5.0;;;;NaN;;;;0 / 0;300529;2022-01-06 16:24:13:142
-2.238;1.718;15.956;0.1669;1.9785;9.6036;2.3429;-0.095;-3.5564;-9.71;-30.24;-36.19;162.13;-10.12;-4.49;5.0;;;;NaN;;;;0 / 0;301029;2022-01-06 16:24:13:642
2.1041;2.472;14.136;0.12;2.2867;9.5356;0.7738;-0.165;-5.4059;-13.14;-32.4;-33.9;153.1;-9.29;1.96;5.0;;;;NaN;;;;0 / 0;301530;2022-01-06 16:24:14:143
-0.5959;3.777;9.84;-0.0213;2.4421;9.4977;2.5764;-0.4344;-3.5092;0.79;-30.36;-34.8;182.59;-14.42;0.13;5.0;;;;NaN;;;;0 / 0;302030;2022-01-06 16:24:14:643
-0.313;-1.184;14.7251;-0.3315;2.2591;9.5371;-1.0821;1.0808;-2.0028;-6.9;-31.8;-34.56;160.46;-13.32;1.99;5.0;;;;NaN;;;;0 / 0;302529;2022-01-06 16:24:15:142
-3.24;2.3;13.052;-0.2575;1.5884;9.6737;1.62;-1.4688;-0.0361;-1.5;-28.44;-36.36;177.45;-8.83;-0.02;5.0;;;;NaN;;;;0 / 0;303030;2022-01-06 16:24:15:643
4.05;3.753;10.6031;-0.6848;2.1861;9.5353;-1.4886;-0.8173;-1.993;-7.09;-29.81;-32.59;155.96;-11.12;5.92;5.0;;;;NaN;;;;0 / 0;303530;2022-01-06 16:24:16:143
-2.441;1.718;15.072;0.1893;2.5928;9.4558;1.4151;0.0322;-4.0284;-1.61;-29.16;-31.86;176.01;-15.33;-1.15;5.0;;;;NaN;;;;0 / 0;304029;2022-01-06 16:24:16:642
2.034;2.19;11.925;-0.2041;2.1129;9.5741;-2.1607;-0.0544;-2.345;-7.91;-27.24;-34.99;157.05;-9.04;3.08;5.0;;;;NaN;;;;0 / 0;304530;2022-01-06 16:24:17:143
-3.291;2.034;15.8621;0.0421;1.752;9.6488;3.1476;1.2208;-8.4799;-5.16;-27.54;-34.74;167.18;-10.29;-0.25;5.0;;;;NaN;;;;0 / 0;305030;2022-01-06 16:24:17:643
-0.5261;1.529;16.35;-0.3047;2.0464;9.5859;-0.686;0.3711;-3.871;-5.29;-30.71;-34.56;164.15;-10.1;3.19;5.0;;;;NaN;;;;0 / 0;305529;2022-01-06 16:24:18:142
-0.971;1.4141;17.006;-0.0619;2.3976;9.5088;1.5709;-0.5396;-3.8167;-4.26;-30.06;-35.46;168.37;-14.15;0.37;5.0;;;;NaN;;;;0 / 0;306029;2022-01-06 16:24:18:642
-1.2319;2.261;16.719;-0.888;2.1517;9.5264;0.3259;-0.1264;-7.183;-3.79;-29.64;-35.29;162.61;-11.96;4.86;5.0;;;;NaN;;;;0 / 0;306529;2022-01-06 16:24:19:142
-1.7089;3.183;9.464;-0.1967;2.366;9.5149;1.6946;0.4925;-3.4001;-2.89;-28.74;-36.06;171.41;-14.08;-0.12;5.0;;;;NaN;;;;0 / 0;307029;2022-01-06 16:24:19:642
-0.035;2.867;13.473;-0.1344;2.1533;9.5664;-0.0811;-0.6631;-3.9138;-7.5;-28.2;-35.34;156.43;-11.41;1.6;5.0;;;;NaN;;;;0 / 0;307529;2022-01-06 16:24:20:142
-2.1799;0.959;20.6831;0.4242;2.0773;9.5747;2.4996;1.0844;-11.0885;-5.94;-25.26;-37.39;165.25;-12.23;-2.54;5.0;;;;NaN;;;;0 / 0;308029;2022-01-06 16:24:20:642
0.114;1.938;15.149;0.0323;2.0581;9.5882;-0.0539;0.1855;-5.5711;-10.39;-28.61;-34.61;154.8;-12.11;-0.19;5.0;;;;NaN;;;;0 / 0;308530;2022-01-06 16:24:21:143
-0.5119;3.59;8.684;0.21;2.5851;9.4575;2.5119;0.3241;-3.945;-6.41;-28.14;-36.79;168.48;-15.48;-3.9;5.0;;;;NaN;;;;0 / 0;309030;2022-01-06 16:24:21:643
0.6431;1.886;15.264;-0.0773;2.0449;9.5908;-1.4932;-0.4809;-1.5876;-11.46;-26.1;-36.36;147.92;-10.46;1.54;5.0;;;;NaN;;;;0 / 0;309529;2022-01-06 16:24:22:142
-1.608;2.735;12.068;0.4079;2.128;9.5643;2.6825;0.2484;-6.4669;-9.24;-27.06;-36.6;157.89;-12.53;-2.44;5.0;;;;NaN;;;;0 / 0;310030;2022-01-06 16:24:22:643
2.4341;1.46;12.9131;0.2159;1.9084;9.6167;-1.0372;0.4919;-3.7176;-14.29;-28.91;-35.94;148.0;-9.8;0.04;5.0;;;;NaN;;;;0 / 0;310529;2022-01-06 16:24:23:142
-2.6299;1.3301;12.4271;0.3481;2.2946;9.5281;0.3076;-0.1292;-0.6714;-6.96;-29.34;-37.09;170.91;-10.69;-6.99;5.0;;;;NaN;;;;0 / 0;311029;2022-01-06 16:24:23:642
-0.433;2.3141;13.629;0.2401;1.8674;9.6242;0.5806;0.124;-3.4513;-11.81;-27.79;-36.96;151.96;-9.67;-0.97;5.0;;;;NaN;;;;0 / 0;311530;2022-01-06 16:24:24:143
-1.776;0.0311;18.9281;-0.4052;2.2826;9.5287;-0.7048;-0.2508;-5.1268;-6.71;-28.09;-37.8;158.09;-13.53;0.57;5.0;;;;NaN;;;;0 / 0;312029;2022-01-06 16:24:24:642
3.083;2.6921;14.5121;-0.3594;2.1338;9.565;-3.2959;-0.461;-4.9566;-12.41;-30.66;-35.59;149.36;-12.57;2.15;5.0;;;;NaN;;;;0 / 0;312529;2022-01-06 16:24:25:142
-2.714;1.172;13.835;0.0342;2.5942;9.4572;1.2873;0.5512;-1.1803;-3.6;-32.16;-34.5;175.06;-15.56;-3.57;5.0;;;;NaN;;;;0 / 0;313029;2022-01-06 16:24:25:642
0.11;-1.572;14.675;-0.2167;1.8364;9.6307;-1.9651;1.7545;-3.8841;-8.4;-28.86;-35.1;157.91;-10.14;1.82;5.0;;;;NaN;;;;0 / 0;313529;2022-01-06 16:24:26:142
-0.155;1.3181;14.436;0.2228;1.9232;9.6136;2.1986;0.893;-4.8195;-5.34;-26.59;-34.56;168.2;-11.79;-3.23;5.0;;;;NaN;;;;0 / 0;314029;2022-01-06 16:24:26:642
2.525;1.079;11.465;0.0728;1.7685;9.6456;0.208;1.3007;-6.2892;-11.51;-23.7;-34.39;144.97;-10.25;0.56;5.0;;;;NaN;;;;0 / 0;314530;2022-01-06 16:24:27:143
-0.809;0.7511;18.5021;-0.2983;1.9672;9.6027;1.4091;-0.7829;-3.1738;-9.41;-24.41;-36.96;149.87;-11.03;0.9;5.0;;;;NaN;;;;0 / 0;315029;2022-01-06 16:24:27:642
-0.8179;1.424;14.505;-0.6072;2.1478;9.5493;0.21;0.7313;-4.9428;-13.56;-25.09;-39.41;134.86;-11.66;4.35;5.0;;;;NaN;;;;0 / 0;315530;2022-01-06 16:24:28:143
-1.3901;1.2491;17.322;-0.3375;2.0627;9.5813;-0.0041;-1.7878;-0.1474;-13.56;-26.1;-40.8;140.25;-12.07;0.3;5.0;;;;NaN;;;;0 / 0;316029;2022-01-06 16:24:28:642
-0.0709;1.383;11.8001;0.0536;2.0898;9.5812;0.2576;0.8019;-2.2353;-21.84;-27.49;-40.26;129.31;-12.3;-0.32;5.0;;;;NaN;;;;0 / 0;316529;2022-01-06 16:24:29:142
-1.6301;2.9801;12.92;0.4202;2.5575;9.458;3.8464;0.7922;-7.096;-17.64;-32.89;-39.9;147.93;-13.38;-5.49;5.0;;;;NaN;;;;0 / 0;317030;2022-01-06 16:24:29:643
3.8531;3.308;9.533;0.2827;2.6969;9.4243;-1.1084;0.2518;-1.4501;-20.59;-35.76;-38.29;142.03;-12.25;0.48;5.0;;;;NaN;;;;0 / 0;317530;2022-01-06 16:24:30:143
-2.07;3.935;11.0531;-0.2467;2.6046;9.4512;1.4213;-0.2475;-7.4104;-5.29;-39.06;-33.49;168.53;-15.4;1.5;5.0;;;;NaN;;;;0 / 0;318030;2022-01-06 16:24:30:643
2.556;3.3191;10.6781;-0.424;2.6115;9.443;-1.7451;-0.7391;0.1812;-2.51;-35.46;-29.94;170.63;-14.35;2.63;5.0;;;;NaN;;;;0 / 0;318529;2022-01-06 16:24:31:142
1.316;4.164;11.2781;0.2433;2.4219;9.4998;1.6419;0.3565;-3.4139;-0.96;-27.41;-33.9;181.88;-14.16;-2.67;5.0;;;;NaN;;;;0 / 0;319029;2022-01-06 16:24:31:642
2.6351;2.4461;12.8531;-0.7629;1.6273;9.6406;-0.756;0.1384;-4.2305;-5.1;-26.94;-34.91;162.5;-7.75;3.23;5.0;;;;NaN;;;;0 / 0;319529;2022-01-06 16:24:32:142
-3.288;4.076;10.2971;0.0481;2.415;9.5045;1.3959;-1.2869;-0.6215;-1.26;-29.46;-32.89;177.61;-14.26;-0.29;5.0;;;;NaN;;;;0 / 0;320029;2022-01-06 16:24:32:642
2.597;2.733;10.005;-0.7359;2.3962;9.4809;-1.6517;0.0536;-4.5612;-7.31;-27.41;-34.31;153.35;-12.07;6.06;5.0;;;;NaN;;;;0 / 0;320529;2022-01-06 16:24:33:142
-2.142;3.413;9.1841;0.3594;2.758;9.404;3.4267;-0.194;-3.8794;-6.79;-29.29;-34.5;165.35;-14.86;-3.31;5.0;;;;NaN;;;;0 / 0;321029;2022-01-06 16:24:33:642
-0.368;1.9481;15.4961;-0.3237;2.3127;9.5246;0.0304;0.9642;-5.9073;-9.41;-29.59;-34.01;155.86;-12.49;1.44;5.0;;;;NaN;;;;0 / 0;321530;2022-01-06 16:24:34:143
-0.8299;2.5181;13.9661;0.3078;2.4454;9.4919;1.5738;2.0996;-3.1906;-6.96;-27.49;-36.96;163.93;-14.24;-3.25;5.0;;;;NaN;;;;0 / 0;322029;2022-01-06 16:24:34:642
-0.835;0.71;17.009;-0.2784;1.8336;9.6297;-0.4986;-0.182;-3.4221;-9.41;-25.44;-37.8;151.27;-9.51;1.66;5.0;;;;NaN;;;;0 / 0;322530;2022-01-06 16:24:35:143
-0.7061;0.081;18.036;0.3567;1.9028;9.6137;0.9967;1.8522;-8.4213;-11.7;-25.09;-38.29;150.93;-9.42;-2.69;5.0;;;;NaN;;;;0 / 0;323029;2022-01-06 16:24:35:642
1.232;2.738;14.955;0.0583;1.7171;9.655;-0.1631;-2.0088;0.1;-15.71;-26.94;-37.26;143.11;-7.81;0.49;5.0;;;;NaN;;;;0 / 0;323529;2022-01-06 16:24:36:142
-2.168;2.4701;16.496;-0.1105;2.3692;9.5155;1.6704;-0.4552;-1.9571;-5.1;-32.46;-35.89;170.7;-12.3;-1.81;5.0;;;;NaN;;;;0 / 0;324030;2022-01-06 16:24:36:643
0.605;2.9681;12.377;-0.4729;1.9489;9.5994;-1.1131;-1.6333;-1.256;-9.49;-30.06;-34.69;154.59;-11.46;2.82;5.0;;;;NaN;;;;0 / 0;324529;2022-01-06 16:24:37:142
-3.219;0.77;10.101;0.9469;2.1036;9.5315;4.1389;1.4525;-0.5843;-6.11;-27.96;-33.3;169.81;-9.17;-3.43;5.0;;;;NaN;;;;0 / 0;325029;2022-01-06 16:24:37:642
0.663;3.032;10.658;-0.8325;1.3186;9.6819;-1.1606;-1.629;-0.0305;-5.94;-28.26;-35.76;157.35;-7.69;5.81;5.0;;;;NaN;;;;0 / 0;325529;2022-01-06 16:24:38:142
-1.2941;2.69;10.749;0.4663;1.8984;9.6098;1.7602;-0.7848;-1.1366;-5.21;-29.89;-36.36;173.1;-8.96;-3.32;5.0;;;;NaN;;;;0 / 0;326030;2022-01-06 16:24:38:643
0.315;2.9921;7.9061;-0.441;1.988;9.5929;-0.9842;-1.0402;2.2172;-7.86;-32.59;-33.96;158.39;-10.25;4.28;5.0;;;;NaN;;;;0 / 0;326529;2022-01-06 16:24:39:142
-0.72;2.913;8.4731;-0.0081;1.5896;9.677;0.4738;-0.8906;3.3765;-2.64;-29.1;-36.3;172.12;-10.27;-1.28;5.0;;;;NaN;;;;0 / 0;327029;2022-01-06 16:24:39:642
-0.5171;2.819;5.84;-0.8462;1.5033;9.6537;-0.0986;-0.7864;4.1257;-2.1;-29.64;-34.86;167.63;-9.8;5.24;5.0;;;;NaN;;;;0 / 0;327529;2022-01-06 16:24:40:142
-0.823;1.883;6.2471;0.1763;1.6628;9.663;1.8062;0.6595;3.9021;-1.2;-26.34;-38.51;179.13;-9.76;-1.05;5.0;;;;NaN;;;;0 / 0;328030;2022-01-06 16:24:40:643
-0.55;2.415;4.284;-1.1884;1.2199;9.6576;-0.5743;0.7846;3.4852;-5.04;-26.16;-38.94;154.2;-8.33;7.08;5.0;;;;NaN;;;;0 / 0;328529;2022-01-06 16:24:41:142
-0.8659;1.476;5.622;0.0538;1.1851;9.7346;0.4305;-0.0666;3.0315;-7.2;-24.66;-39.9;160.51;-7.52;-0.11;5.0;;;;NaN;;;;0 / 0;329029;2022-01-06 16:24:41:642
-1.3451;0.981;5.234;-0.5508;0.946;9.7454;0.3443;-0.1501;3.6938;-6.36;-27.54;-40.44;161.4;-6.8;2.55;5.0;;;;NaN;;;;0 / 0;329530;2022-01-06 16:24:42:143
-0.5621;1.5671;4.023;0.0318;1.1984;9.7331;0.5844;-0.4186;5.7212;-4.56;-31.5;-40.01;169.73;-7.02;-0.19;5.0;;;;NaN;;;;0 / 0;330029;2022-01-06 16:24:42:642
-1.6729;0.141;8.313;-0.7859;1.4778;9.6628;0.8213;1.3416;1.6949;-2.64;-30.84;-38.46;165.48;-9.85;4.91;5.0;;;;NaN;;;;0 / 0;330529;2022-01-06 16:24:43:142
-1.409;0.6821;6.0911;-0.4422;1.0135;9.7441;0.9547;-0.0692;4.2287;0.79;-30.19;-36.71;178.51;-5.93;2.6;5.0;;;;NaN;;;;0 / 0;331030;2022-01-06 16:24:43:643
-0.438;1.4861;5.2541;-1.5378;1.3551;9.5901;-0.2586;1.3933;2.4015;3.71;-30.3;-33.54;177.4;-9.6;8.52;5.0;;;;NaN;;;;0 / 0;331529;2022-01-06 16:24:44:142
-0.629;1.101;5.8211;0.0281;1.5782;9.6788;-1.462;0.5615;1.4314;-0.24;-26.81;-37.09;180.3;-9.26;-0.17;5.0;;;;NaN;;;;0 / 0;332029;2022-01-06 16:24:44:642
-1.098;-0.138;7.0991;-1.0084;1.8158;9.5842;0.0484;1.9145;2.4915;-0.79;-28.8;-36.11;167.73;-10.67;6.01;5.0;;;;NaN;;;;0 / 0;332530;2022-01-06 16:24:45:143
-1.1959;0.8591;6.189;0.2464;2.0536;9.5861;-0.5772;1.2728;1.2479;-4.74;-28.14;-37.86;168.29;-12.09;-1.47;5.0;;;;NaN;;;;0 / 0;333030;2022-01-06 16:24:45:643
0.363;0.375;9.947;-1.1895;1.3981;9.6333;-1.1275;1.6816;-2.0454;-2.94;-26.76;-39.6;166.46;-9.68;5.12;5.0;;;;NaN;;;;0 / 0;333530;2022-01-06 16:24:46:143
0.177;1.5671;7.362;0.0787;1.4561;9.6976;-1.6447;0.6431;0.12;-3.54;-29.59;-37.09;171.3;-8.54;-0.46;5.0;;;;NaN;;;;0 / 0;334029;2022-01-06 16:24:46:642
0.198;0.4781;11.774;-1.0437;1.6059;9.6178;-0.627;0.8995;-0.7517;-0.36;-29.29;-37.2;171.31;-10.4;5.19;5.0;;;;NaN;;;;0 / 0;334529;2022-01-06 16:24:47:142
1.886;2.115;8.286;-0.2993;1.3677;9.7062;-2.7108;0.6101;1.5467;-4.86;-25.5;-39.36;160.72;-9.49;2.56;5.0;;;;NaN;;;;0 / 0;335030;2022-01-06 16:24:47:643
-0.627;1.2851;8.145;-0.9293;1.7199;9.6098;-0.5399;0.3892;0.4108;-2.4;-28.39;-39.3;166.38;-10.44;4.38;5.0;;;;NaN;;;;0 / 0;335529;2022-01-06 16:24:48:142
2.247;2.084;10.419;-0.5605;2.0437;9.5749;-2.0695;0.715;-0.5211;-9.54;-31.39;-39.54;151.15;-12.3;4.07;5.0;;;;NaN;;;;0 / 0;336029;2022-01-06 16:24:48:642
0.107;1.3091;12.1781;-0.7482;2.213;9.5244;1.4562;1.1203;-6.2754;-6.41;-33.71;-37.69;161.99;-14.05;2.65;5.0;;;;NaN;;;;0 / 0;336529;2022-01-06 16:24:49:142
-2.34;-1.206;14.0171;0.0133;2.6114;9.4525;1.9065;4.1233;-8.5127;-8.76;-36.6;-35.59;160.09;-14.91;0.97;5.0;;;;NaN;;;;0 / 0;337030;2022-01-06 16:24:49:643
-1.218;0.9521;8.945;-0.8878;2.0749;9.5434;2.2397;2.152;-4.655;5.21;-32.81;-35.51;186.48;-13.22;3.63;5.0;;;;NaN;;;;0 / 0;337529;2022-01-06 16:24:50:142
-1.1681;-0.351;12.624;-0.3483;2.9515;9.3455;0.6051;3.9185;-8.1022;0.54;-33.06;-31.74;179.5;-17.52;2.13;5.0;;;;NaN;;;;0 / 0;338030;2022-01-06 16:24:50:643
-1.012;1.742;18.488;0.0268;2.6157;9.4513;0.8583;0.2032;-0.868;2.4;-29.16;-35.1;190.88;-16.06;-2.31;5.0;;;;NaN;;;;0 / 0;338530;2022-01-06 16:24:51:143
-0.105;-0.292;12.834;-0.6359;1.9076;9.5983;-0.5406;2.1936;-3.2321;0.24;-29.16;-35.1;171.48;-11.42;5.29;5.0;;;;NaN;;;;0 / 0;339029;2022-01-06 16:24:51:642
-0.387;2.7671;16.2881;-0.69;2.0126;9.5731;-0.5171;-1.1736;-2.8177;3.66;-27.3;-35.81;187.65;-12.67;2.42;5.0;;;;NaN;;;;0 / 0;339529;2022-01-06 16:24:52:142
-0.0019;-1.926;17.636;-0.2383;2.0506;9.5869;-2.1043;0.9473;-3.9245;-1.44;-26.7;-36.49;174.27;-12.07;1.42;5.0;;;;NaN;;;;0 / 0;340029;2022-01-06 16:24:52:642
-3.145;0.548;11.8481;-0.0152;1.9723;9.6062;0.7998;-0.8803;-2.3243;-3.19;-27.54;-38.1;176.44;-10.1;-2.69;5.0;;;;NaN;;;;0 / 0;340530;2022-01-06 16:24:53:143
1.4291;2.2181;10.046;0.1322;1.9334;9.6133;-0.2743;0.2364;-2.5696;-5.4;-30.96;-36.79;168.93;-11.06;-0.68;5.0;;;;NaN;;;;0 / 0;341029;2022-01-06 16:24:53:642
-0.689;2.8361;9.26;-0.0943;2.199;9.5565;-0.8928;-1.4133;-0.8226;-0.41;-31.14;-37.01;182.0;-12.94;-1.19;5.0;;;;NaN;;;;0 / 0;341530;2022-01-06 16:24:54:143
1.4501;1.929;12.537;-0.1301;2.4426;9.4967;-2.2821;0.277;-1.8491;-0.54;-32.76;-34.26;176.68;-13.27;0.69;5.0;;;;NaN;;;;0 / 0;342029;2022-01-06 16:24:54:642
-0.8299;3.2261;9.0671;-0.1993;1.9155;9.6157;0.5296;-1.2802;0.5522;3.96;-29.04;-34.31;188.6;-11.26;1.19;5.0;;;;NaN;;;;0 / 0;342530;2022-01-06 16:24:55:143
-0.689;3.2291;11.223;0.0048;2.2721;9.5398;1.3532;0.2836;-0.9615;0.0;-32.81;-31.69;180.24;-10.33;1.55;5.0;;;;NaN;;;;0 / 0;343030;2022-01-06 16:24:55:643
-2.934;1.211;17.684;0.3584;2.3404;9.5165;2.1018;0.8285;-6.4737;5.76;-29.21;-33.79;200.51;-12.74;-3.06;5.0;;;;NaN;;;;0 / 0;343529;2022-01-06 16:24:56:142
0.1481;2.3261;14.0531;-0.3386;1.8614;9.6224;-0.4748;-0.4541;-4.4201;5.1;-26.4;-31.01;191.27;-10.94;2.02;5.0;;;;NaN;;;;0 / 0;344029;2022-01-06 16:24:56:642
-0.15;2.829;11.549;-0.0871;2.2011;9.556;1.3839;-0.6591;-1.2858;6.84;-22.86;-34.99;207.39;-12.0;-1.49;5.0;;;;NaN;;;;0 / 0;344529;2022-01-06 16:24:57:142
0.0191;2.501;12.75;-0.7146;2.4447;9.4701;-1.0082;-0.7231;-0.8181;-0.6;-26.34;-37.39;167.03;-13.16;4.5;5.0;;;;NaN;;;;0 / 0;345029;2022-01-06 16:24:57:642
-1.467;2.843;13.2221;-0.3238;2.09;9.5759;0.9957;-0.7384;-3.6425;0.41;-24.19;-41.1;180.21;-11.15;-0.08;5.0;;;;NaN;;;;0 / 0;345529;2022-01-06 16:24:58:142
1.175;1.893;14.055;-0.3343;1.4159;9.6981;-1.8053;-1.4308;-2.2741;-9.19;-24.36;-43.14;155.56;-7.32;3.0;5.0;;;;NaN;;;;0 / 0;346029;2022-01-06 16:24:58:642
-1.18;1.5101;13.976;0.6421;1.7525;9.6274;1.8135;-0.3859;-2.3721;-2.1;-27.19;-44.81;183.09;-10.29;-3.82;5.0;;;;NaN;;;;0 / 0;346529;2022-01-06 16:24:59:142
-0.107;1.838;12.8291;-0.2494;1.2353;9.7253;-0.5763;-0.8895;-2.4513;-1.14;-28.99;-42.54;172.91;-5.89;2.72;5.0;;;;NaN;;;;0 / 0;347029;2022-01-06 16:24:59:642
-1.5101;3.068;8.8631;0.1332;1.7727;9.6442;1.2326;-0.5058;-1.8056;3.41;-31.2;-40.61;188.18;-7.8;-0.86;5.0;;;;NaN;;;;0 / 0;347530;2022-01-06 16:25:00:143
-0.222;3.264;10.0001;-0.4647;1.381;9.6978;-0.2341;-1.718;-0.3225;5.51;-31.8;-35.64;189.13;-8.1;2.74;5.0;;;;NaN;;;;0 / 0;348030;2022-01-06 16:25:00:643
-0.9739;2.8811;9.993;-0.2939;1.7536;9.6441;0.5506;-1.0113;0.5321;14.29;-28.09;-33.71;209.7;-7.29;1.07;5.0;;;;NaN;;;;0 / 0;348530;2022-01-06 16:25:01:143
-1.503;2.336;9.7271;-1.2721;1.0801;9.6636;0.2433;-1.2352;-0.0606;11.29;-26.1;-34.69;196.31;-6.99;7.61;5.0;;;;NaN;;;;0 / 0;349029;2022-01-06 16:25:01:642
-0.524;2.709;9.7151;0.3642;1.6106;9.6666;0.8818;-1.0862;-0.0447;10.86;-23.59;-36.79;212.37;-7.13;-1.89;5.0;;;;NaN;;;;0 / 0;349529;2022-01-06 16:25:02:142
0.225;3.183;8.72;-0.6268;1.3995;9.686;-1.0763;-1.2974;3.7748;6.66;-25.56;-35.7;192.78;-8.2;3.7;5.0;;;;NaN;;;;0 / 0;350029;2022-01-06 16:25:02:642
-0.21;3.195;5.7491;0.5715;1.6281;9.6537;0.8516;-1.4163;3.8759;7.61;-23.51;-37.8;210.39;-9.56;-3.39;5.0;;;;NaN;;;;0 / 0;350529;2022-01-06 16:25:03:142
-0.497;1.634;6.6851;-0.401;1.6699;9.6551;0.2255;0.267;3.1582;6.6;-23.51;-39.0;195.94;-10.34;3.32;5.0;;;;NaN;;;;0 / 0;351029;2022-01-06 16:25:03:642
-1.098;1.584;5.402;0.0226;1.3797;9.7091;0.9146;-0.0174;4.408;6.0;-24.79;-39.41;196.56;-8.28;0.46;5.0;;;;NaN;;;;0 / 0;351529;2022-01-06 16:25:04:142
0.165;2.106;5.28;-1.1459;1.0439;9.6834;-0.9496;-0.322;4.2695;7.61;-26.21;-38.7;188.56;-7.18;7.01;5.0;;;;NaN;;;;0 / 0;352030;2022-01-06 16:25:04:643
0.222;2.4;5.103;0.3349;1.374;9.7041;0.1306;-1.064;4.9506;8.29;-25.61;-38.21;200.09;-9.05;-0.98;5.0;;;;NaN;;;;0 / 0;352529;2022-01-06 16:25:05:142
-0.093;1.271;5.763;-0.9193;1.1504;9.6955;-1.4679;0.602;2.4675;11.16;-23.89;-37.91;200.72;-7.55;5.86;5.0;;;;NaN;;;;0 / 0;353030;2022-01-06 16:25:05:643
-0.8711;1.476;5.739;-0.1044;1.3949;9.7064;0.4813;-0.0897;2.4876;10.44;-26.7;-36.66;204.12;-8.18;0.62;5.0;;;;NaN;;;;0 / 0;353529;2022-01-06 16:25:06:142
0.6551;1.563;4.715;-0.8333;1.7469;9.6138;-0.3787;1.7685;0.9254;8.34;-26.7;-36.84;193.51;-10.26;4.95;5.0;;;;NaN;;;;0 / 0;354029;2022-01-06 16:25:06:642
0.588;1.632;4.626;0.15;1.624;9.6701;-2.5314;-0.6027;2.9583;10.69;-27.0;-35.94;209.02;-12.69;-0.38;5.0;;;;NaN;;;;0 / 0;354529;2022-01-06 16:25:07:142
-0.806;0.6071;7.326;-0.2989;1.8836;9.6194;-0.3534;1.6112;0.0307;10.74;-24.49;-37.44;212.61;-11.67;1.2;5.0;;;;NaN;;;;0 / 0;355029;2022-01-06 16:25:07:642
2.63;3.504;3.738;0.6549;1.5414;9.6626;-3.5327;-1.8142;3.3501;7.86;-25.91;-37.5;205.69;-12.03;-0.83;5.0;;;;NaN;;;;0 / 0;355529;2022-01-06 16:25:08:142
-0.78;1.934;6.881;0.2277;1.5772;9.6763;1.0136;-0.134;3.2795;11.76;-24.66;-36.9;214.43;-9.25;-1.35;5.0;;;;NaN;;;;0 / 0;356029;2022-01-06 16:25:08:642
0.497;3.116;4.227;0.1497;1.217;9.7297;-0.3407;-1.8885;5.5074;11.89;-24.96;-36.6;212.22;-8.19;-0.44;5.0;;;;NaN;;;;0 / 0;356529;2022-01-06 16:25:09:142
-1.1921;0.473;6.623;-0.8723;1.3239;9.6776;0.4353;0.9032;1.1788;15.0;-24.3;-36.06;213.43;-8.82;4.86;5.0;;;;NaN;;;;0 / 0;357029;2022-01-06 16:25:09:642
-1.479;0.983;4.796;-0.2597;1.4214;9.6996;0.2081;1.2006;3.0493;16.09;-22.61;-36.11;222.08;-10.18;2.21;5.0;;;;NaN;;;;0 / 0;357529;2022-01-06 16:25:10:142
-0.945;0.773;3.504;-1.1579;1.6619;9.5952;0.0543;1.1034;4.6102;15.71;-24.19;-35.51;213.82;-9.76;6.88;5.0;;;;NaN;;;;0 / 0;358030;2022-01-06 16:25:10:643
1.2941;2.51;3.939;0.1413;1.4808;9.6932;-1.4523;-1.0934;5.539;11.04;-24.66;-37.56;209.16;-9.18;0.94;5.0;;;;NaN;;;;0 / 0;358529;2022-01-06 16:25:11:142
-0.0431;0.6221;6.077;-0.3711;1.7341;9.645;-0.3302;1.1212;3.5703;13.69;-23.21;-37.91;224.84;-12.48;-0.22;5.0;;;;NaN;;;;0 / 0;359029;2022-01-06 16:25:11:642
0.6191;2.063;7.08;0.5271;1.1836;9.7207;1.1791;-0.5707;4.0315;12.79;-23.94;-38.51;218.51;-8.39;-2.11;5.0;;;;NaN;;;;0 / 0;359530;2022-01-06 16:25:12:143
-0.7249;1.017;6.5651;-0.7018;1.967;9.5817;-1.2311;1.0123;-1.2473;15.71;-24.96;-36.54;218.18;-11.57;4.19;5.0;;;;NaN;;;;0 / 0;360029;2022-01-06 16:25:12:642
-0.313;1.6631;8.31;0.4137;1.7782;9.6352;0.7046;1.4166;0.3732;13.69;-24.6;-37.61;222.34;-11.78;-2.01;5.0;;;;NaN;;;;0 / 0;360529;2022-01-06 16:25:13:142
-0.667;1.01;6.005;-0.9825;1.7713;9.5952;-1.7453;0.1913;-0.157;17.29;-24.54;-36.71;219.88;-11.68;4.58;5.0;;;;NaN;;;;0 / 0;361030;2022-01-06 16:25:13:643
0.9161;1.575;9.2411;-0.822;1.6978;9.6235;-1.1674;1.6095;1.4176;15.11;-26.76;-37.2;210.55;-9.97;4.88;5.0;;;;NaN;;;;0 / 0;361530;2022-01-06 16:25:14:143
0.335;0.876;11.42;-0.8693;2.008;9.5594;-1.06;1.0546;-1.7727;18.6;-24.66;-37.2;223.21;-11.82;5.2;5.0;;;;NaN;;;;0 / 0;362029;2022-01-06 16:25:14:642
0.809;0.524;10.797;-0.2662;1.7734;9.6413;-0.1484;2.4872;1.5721;16.01;-23.76;-38.16;222.42;-11.68;2.5;5.0;;;;NaN;;;;0 / 0;362529;2022-01-06 16:25:15:142
-0.615;0.327;9.0161;-0.3905;1.7334;9.6443;2.8516;2.4102;1.0393;15.66;-20.4;-39.84;231.63;-11.34;1.83;5.0;;;;NaN;;;;0 / 0;363029;2022-01-06 16:25:15:642
-1.318;-0.8779;10.3181;0.3097;2.2351;9.5435;0.2975;3.8138;-8.263;11.94;-22.5;-39.66;223.87;-14.58;-1.53;5.0;;;;NaN;;;;0 / 0;363529;2022-01-06 16:25:16:142
0.653;0.792;11.987;-0.4268;1.9248;9.6064;2.1558;0.9528;-1.2602;13.8;-21.71;-39.06;224.34;-12.05;1.47;5.0;;;;NaN;;;;0 / 0;364029;2022-01-06 16:25:16:642
-1.29;-1.5101;12.8081;0.4502;2.0748;9.5741;1.9076;3.1236;-4.8771;8.7;-24.49;-39.06;205.12;-10.02;0.15;5.0;;;;NaN;;;;0 / 0;364529;2022-01-06 16:25:17:142
-0.1241;1.469;19.079;-0.3677;2.4243;9.4952;0.5915;0.7298;1.8947;12.06;-24.66;-38.7;221.01;-15.48;0.16;5.0;;;;NaN;;;;0 / 0;365030;2022-01-06 16:25:17:643
-0.897;-2.271;14.711;0.2681;2.3592;9.5149;1.1844;4.5249;-5.1729;7.61;-27.3;-39.06;200.23;-14.12;-0.75;5.0;;;;NaN;;;;0 / 0;365529;2022-01-06 16:25:18:142
0.141;1.754;8.028;-0.3623;1.8897;9.616;3.7896;1.3916;-0.171;14.51;-25.61;-38.34;221.14;-12.08;-0.43;5.0;;;;NaN;;;;0 / 0;366029;2022-01-06 16:25:18:642
1.5701;-0.485;10.6781;0.0235;2.0953;9.5802;-1.921;1.4826;-0.982;11.04;-27.6;-38.59;208.65;-11.49;0.38;5.0;;;;NaN;;;;0 / 0;366529;2022-01-06 16:25:19:142
-2.5939;-2.381;18.3611;-0.2791;1.9462;9.6076;2.2645;4.2622;-8.7433;13.8;-24.54;-39.96;217.89;-11.45;1.66;5.0;;;;NaN;;;;0 / 0;367029;2022-01-06 16:25:19:642
0.986;-1.699;13.971;0.8933;2.2571;9.5015;-2.3212;0.6586;-4.2318;6.66;-26.34;-40.14;213.34;-13.31;-5.37;5.0;;;;NaN;;;;0 / 0;367529;2022-01-06 16:25:20:142
-0.8299;0.21;17.763;0.4781;1.6018;9.6631;-2.7317;-2.8453;-1.276;14.1;-22.44;-40.91;228.17;-9.33;-4.31;5.0;;;;NaN;;;;0 / 0;368029;2022-01-06 16:25:20:642
-0.306;-2.02;16.31;0.4061;2.1136;9.5676;-2.8627;0.7788;-5.8779;10.44;-26.29;-39.19;212.3;-12.25;-1.27;5.0;;;;NaN;;;;0 / 0;368529;2022-01-06 16:25:21:142
-1.2439;2.8121;14.684;0.7227;2.8277;9.3623;1.9621;0.0219;-5.3205;14.1;-28.01;-36.71;226.84;-16.41;-6.39;5.0;;;;NaN;;;;0 / 0;369030;2022-01-06 16:25:21:643
1.728;1.6061;13.251;-0.049;2.2648;9.5414;-2.1738;1.0254;-4.542;11.89;-26.21;-39.19;214.76;-13.51;1.2;5.0;;;;NaN;;;;0 / 0;369529;2022-01-06 16:25:22:142
-2.3959;-1.299;17.432;0.0042;1.7652;9.6465;0.5561;0.1739;-5.4779;15.79;-20.34;-40.56;230.31;-9.36;-1.41;5.0;;;;NaN;;;;0 / 0;370029;2022-01-06 16:25:22:642
0.4691;1.7951;14.141;-0.6005;1.4314;9.683;-1.0854;-1.0147;-0.7395;14.04;-22.44;-39.9;212.6;-3.54;5.05;5.0;;;;NaN;;;;0 / 0;370530;2022-01-06 16:25:23:143
-3.942;0.39;15.0791;0.8652;1.6437;9.6291;4.2567;1.2351;-2.7654;19.31;-16.56;-40.69;245.7;-9.65;-5.13;5.0;;;;NaN;;;;0 / 0;371030;2022-01-06 16:25:23:643
0.0161;1.785;16.262;-0.132;1.8111;9.6371;-0.6549;-0.6646;-2.715;15.84;-22.99;-39.54;219.37;-7.89;2.68;5.0;;;;NaN;;;;0 / 0;371530;2022-01-06 16:25:24:143
-2.836;0.248;15.522;-0.0452;1.8264;9.635;2.1333;0.5765;-4.6323;18.71;-16.5;-40.86;244.78;-9.06;-1.42;5.0;;;;NaN;;;;0 / 0;372029;2022-01-06 16:25:24:642
-0.4451;1.4021;15.596;-0.1957;1.8092;9.6363;1.1118;0.9239;-8.1382;15.84;-18.84;-41.29;225.06;-6.65;2.67;5.0;;;;NaN;;;;0 / 0;372529;2022-01-06 16:25:25:142
-2.151;1.622;12.6911;0.3754;1.9151;9.6105;2.0632;0.151;-3.6686;14.64;-11.1;-41.94;260.75;-11.26;-2.24;5.0;;;;NaN;;;;0 / 0;373029;2022-01-06 16:25:25:642
0.653;3.1091;13.086;-0.2527;1.685;9.6575;0.7376;0.7107;-3.9549;-5.34;-16.31;-40.14;132.4;-7.43;4.03;5.0;;;;NaN;;;;0 / 0;373529;2022-01-06 16:25:26:142
-4.023;0.785;16.535;-0.0789;1.6853;9.6604;1.241;-0.0825;1.0197;15.41;-25.61;-38.21;218.19;-9.11;-0.73;5.0;;;;NaN;;;;0 / 0;374029;2022-01-06 16:25:26:642
0.5171;1.1291;16.295;-0.4114;1.7552;9.6395;-1.4601;-1.7316;2.9383;15.49;-26.94;-35.51;209.46;-6.88;3.7;5.0;;;;NaN;;;;0 / 0;374529;2022-01-06 16:25:27:142
-1.819;1.397;17.531;0.1496;2.0528;9.5882;1.6342;1.222;-3.0242;16.99;-18.6;-36.71;237.85;-10.42;-1.98;5.0;;;;NaN;;;;0 / 0;375029;2022-01-06 16:25:27:642
0.6101;1.467;15.8531;-0.0495;1.5366;9.6854;-1.1876;-1.4002;-3.646;14.59;-20.7;-36.6;219.44;-6.72;2.24;5.0;;;;NaN;;;;0 / 0;375529;2022-01-06 16:25:28:142
-1.376;1.718;17.6411;-0.0445;1.6454;9.6675;1.7339;0.4542;-3.2333;17.16;-16.39;-37.44;238.1;-7.8;-0.7;5.0;;;;NaN;;;;0 / 0;376029;2022-01-06 16:25:28:642
1.2041;0.9191;15.233;-0.6886;1.0233;9.7288;-1.7106;-1.4625;-0.6975;14.59;-16.5;-39.11;224.51;-5.59;3.17;5.0;;;;NaN;;;;0 / 0;376529;2022-01-06 16:25:29:142
-1.7951;1.5821;14.057;0.4402;1.3386;9.7049;2.2153;0.555;-4.6304;18.06;-15.11;-39.11;243.95;-7.85;-2.6;5.0;;;;NaN;;;;0 / 0;377029;2022-01-06 16:25:29:642
-0.141;2.264;11.5391;-0.4504;1.8474;9.6205;-0.1265;-0.9168;1.431;17.4;-19.8;-38.34;228.85;-9.82;3.02;5.0;;;;NaN;;;;0 / 0;377529;2022-01-06 16:25:30:142
-1.275;2.501;9.72;0.5401;1.8449;9.6164;2.0656;-0.6067;1.6076;20.94;-17.7;-39.0;240.48;-7.76;-2.05;5.0;;;;NaN;;;;0 / 0;378029;2022-01-06 16:25:30:642
1.029;2.477;13.344;-0.6919;1.502;9.6662;-0.9084;-1.2849;2.1894;18.84;-19.2;-38.76;229.07;-7.51;4.86;5.0;;;;NaN;;;;0 / 0;378529;2022-01-06 16:25:31:142
-1.1599;1.014;12.068;0.4972;0.9268;9.7501;1.6549;-0.0811;-2.3175;19.56;-11.81;-41.46;247.16;-3.99;-2.54;5.0;;;;NaN;;;;0 / 0;379030;2022-01-06 16:25:31:643
-0.342;0.9161;6.948;-1.2507;-0.0105;9.7266;-0.5107;-0.6;3.8532;18.96;-13.86;-41.16;234.12;-2.41;5.73;5.0;;;;NaN;;;;0 / 0;379530;2022-01-06 16:25:32:143
-0.895;1.5311;7.647;0.0377;0.5971;9.7884;0.2176;-1.257;5.2378;19.2;-15.6;-39.96;229.93;-1.57;-1.32;5.0;;;;NaN;;;;0 / 0;380029;2022-01-06 16:25:32:642
-1.096;1.151;2.654;-1.3275;0.6587;9.694;-0.6192;-0.4173;6.6567;18.71;-19.74;-38.21;221.27;-5.24;6.94;5.0;;;;NaN;;;;0 / 0;380529;2022-01-06 16:25:33:142
0.141;1.977;6.618;0.5245;0.9491;9.7465;0.9101;-0.7937;4.986;15.41;-18.3;-40.91;230.94;-5.63;-3.14;5.0;;;;NaN;;;;0 / 0;381029;2022-01-06 16:25:33:642
0.2681;1.491;6.1541;-0.246;1.5857;9.6745;-0.4639;0.6187;3.3001;16.14;-20.04;-40.44;228.6;-9.31;1.46;5.0;;;;NaN;;;;0 / 0;381530;2022-01-06 16:25:34:143
-0.356;1.61;5.459;0.2316;0.9338;9.7593;0.4223;-0.7143;4.1478;17.89;-18.0;-40.86;234.78;-7.07;-0.24;5.0;;;;NaN;;;;0 / 0;382030;2022-01-06 16:25:34:643
-0.8779;0.708;6.582;-1.1167;0.7794;9.7116;-0.6696;0.7908;1.7383;20.1;-17.1;-40.14;230.97;-5.97;6.32;5.0;;;;NaN;;;;0 / 0;382530;2022-01-06 16:25:35:143
-0.416;1.5581;5.696;0.4424;0.5882;9.779;0.6331;-0.6376;3.6226;16.69;-16.86;-40.5;232.12;-3.44;-2.59;5.0;;;;NaN;;;;0 / 0;383029;2022-01-06 16:25:35:642
0.117;0.1691;5.969;-0.3485;0.8751;9.7613;-0.4574;0.7117;3.7956;16.61;-19.2;-38.4;228.79;-7.3;1.6;5.0;;;;NaN;;;;0 / 0;383530;2022-01-06 16:25:36:143
1.0001;1.335;7.173;0.1863;1.26;9.7236;-2.6177;-0.3387;1.0281;14.4;-23.04;-38.04;219.72;-8.33;-0.53;5.0;;;;NaN;;;;0 / 0;384030;2022-01-06 16:25:36:643
-0.2839;0.876;7.358;-0.0422;1.8917;9.6224;-0.0694;1.0608;0.2788;14.59;-22.39;-37.8;229.57;-12.09;-1.53;5.0;;;;NaN;;;;0 / 0;384529;2022-01-06 16:25:37:142
2.0411;0.6581;7.523;-0.0864;1.9533;9.6098;-2.7552;-0.1316;2.6932;10.39;-25.2;-37.74;209.73;-11.49;0.52;5.0;;;;NaN;;;;0 / 0;385029;2022-01-06 16:25:37:642
0.8441;0.938;9.818;-0.2071;1.7189;9.6526;2.3036;1.5236;-1.0125;13.26;-23.34;-38.51;229.16;-12.68;-4.25;5.0;;;;NaN;;;;0 / 0;385530;2022-01-06 16:25:38:143
-0.6311;-1.005;8.4731;-0.2184;1.5634;9.6788;-0.5685;2.5036;-5.2462;11.34;-24.3;-39.19;209.38;-9.48;1.94;5.0;;;;NaN;;;;0 / 0;386029;2022-01-06 16:25:38:642
-2.872;-0.9;7.946;-0.5624;1.753;9.6323;3.5374;3.619;2.8085;16.2;-21.9;-40.39;225.38;-11.13;2.98;5.0;;;;NaN;;;;0 / 0;386529;2022-01-06 16:25:39:142
-2.022;-3.6521;14.436;-0.3696;1.5228;9.6806;-2.1327;1.4703;-2.0706;14.46;-23.29;-39.19;217.01;-8.93;2.19;5.0;;;;NaN;;;;0 / 0;387029;2022-01-06 16:25:39:642
-2.901;-1.376;12.219;0.0126;1.4535;9.6983;0.665;0.7729;-8.2121;14.59;-18.6;-41.16;238.25;-9.29;-4.8;5.0;;;;NaN;;;;0 / 0;387529;2022-01-06 16:25:40:142
0.1001;-1.864;16.9661;-0.0178;1.5809;9.6784;-0.0543;3.4266;-7.2779;8.21;-23.04;-37.5;202.8;-8.39;1.11;5.0;;;;NaN;;;;0 / 0;388029;2022-01-06 16:25:40:642
-3.2929;-2.053;10.587;-0.1126;1.9189;9.6164;0.7266;1.8446;-10.7693;9.06;-19.09;-38.76;231.56;-13.3;-3.8;5.0;;;;NaN;;;;0 / 0;388530;2022-01-06 16:25:41:143
-0.205;-1.864;17.396;-0.1947;1.4375;9.6988;-2.2514;0.8246;-5.6922;3.11;-24.96;-37.5;185.44;-8.01;1.75;5.0;;;;NaN;;;;0 / 0;389030;2022-01-06 16:25:41:643
-0.442;3.935;13.3391;-0.4039;2.4171;9.4955;-0.0203;-1.4572;-3.8536;9.6;-27.96;-35.94;205.97;-13.16;1.17;5.0;;;;NaN;;;;0 / 0;389529;2022-01-06 16:25:42:142
0.303;2.5541;8.301;-0.684;1.7787;9.6197;0.4115;0.3244;-3.7444;8.89;-28.39;-37.39;194.88;-9.47;5.08;5.0;;;;NaN;;;;0 / 0;390030;2022-01-06 16:25:42:643
-1.783;2.508;11.01;-0.4957;1.7739;9.6321;3.5235;0.2785;-2.8663;14.04;-26.1;-37.74;216.17;-10.08;0.23;5.0;;;;NaN;;;;0 / 0;390530;2022-01-06 16:25:43:143
-0.888;2.0441;15.02;-0.3097;2.0482;9.5854;-0.0759;-0.6128;-3.3448;10.26;-28.09;-38.81;197.08;-7.56;5.93;5.0;;;;NaN;;;;0 / 0;391029;2022-01-06 16:25:43:642
-3.4751;0.6311;13.911;-0.3437;1.733;9.6462;0.2556;0.5208;-5.0093;17.4;-21.66;-40.39;228.91;-9.99;0.18;5.0;;;;NaN;;;;0 / 0;391529;2022-01-06 16:25:44:142
0.701;2.609;12.633;-0.7854;1.211;9.6999;-1.3845;-1.223;-2.9413;11.76;-27.11;-39.19;201.95;-7.09;4.63;5.0;;;;NaN;;;;0 / 0;392030;2022-01-06 16:25:44:643
-1.9669;1.1171;13.1261;0.8591;1.7787;9.6057;1.5674;-0.0465;-0.7594;14.1;-22.09;-40.56;230.6;-10.45;-5.11;5.0;;;;NaN;;;;0 / 0;392529;2022-01-06 16:25:45:142
